"rt","responses","time_elapsed","subject","prolificID","demoID","trialType","question_order","key_press","stim","corrresp","phase","stimNum","trialNum","corr","repeatTrial","motorSwitch","pracCounter","hierarchy"
"150101","{""Q0"":""ms1000378""}","150137","HierDy3xgwra7w","f2oiftadk1","ms1000378","","","","","","","","","","","","",""
"1298","","151449","HierDy3xgwra7w","f2oiftadk1","ms1000378","","","","","","","","","","","","",""
"","","153663","HierDy3xgwra7w","f2oiftadk1","ms1000378","fullscreen","","","","","","","","","","","",""
"11877","{""Vision"":""Yes"",""Handedness"":""Right"",""Gender"":""female""}","165554","HierDy3xgwra7w","f2oiftadk1","ms1000378","","[0,1,2]","","","","","","","","","","",""
"4656","{""Q0"":""19""}","170223","HierDy3xgwra7w","f2oiftadk1","ms1000378","","","","","","","","","","","","",""
"132433","","302672","HierDy3xgwra7w","f2oiftadk1","ms1000378","","","","","","","","","","","","",""
"2444","","305128","HierDy3xgwra7w","f2oiftadk1","ms1000378","motor","","68","img/motor_3.png","68","motor","3","1","1","0","0","",""
"null","","305242","HierDy3xgwra7w","f2oiftadk1","ms1000378","iti","","null","img/motor_3.png","68","motor","","","","","","",""
"1607","","306860","HierDy3xgwra7w","f2oiftadk1","ms1000378","motor","","75","img/motor_7.png","75","motor","7","2","1","0","0","",""
"null","","306973","HierDy3xgwra7w","f2oiftadk1","ms1000378","iti","","null","img/motor_7.png","75","motor","","","","","","",""
"1030","","308014","HierDy3xgwra7w","f2oiftadk1","ms1000378","motor","","65","img/motor_1.png","65","motor","1","3","1","0","0","",""
"null","","308127","HierDy3xgwra7w","f2oiftadk1","ms1000378","iti","","null","img/motor_1.png","65","motor","","","","","","",""
"1255","","309394","HierDy3xgwra7w","f2oiftadk1","ms1000378","motor","","74","img/motor_6.png","74","motor","6","4","1","0","0","",""
"null","","309506","HierDy3xgwra7w","f2oiftadk1","ms1000378","iti","","null","img/motor_6.png","74","motor","","","","","","",""
"629","","310147","HierDy3xgwra7w","f2oiftadk1","ms1000378","motor","","72","img/motor_5.png","72","motor","5","5","1","0","0","",""
"null","","310259","HierDy3xgwra7w","f2oiftadk1","ms1000378","iti","","null","img/motor_5.png","72","motor","","","","","","",""
"609","","310879","HierDy3xgwra7w","f2oiftadk1","ms1000378","motor","","68","img/motor_3.png","68","motor","3","6","1","0","0","",""
"null","","310992","HierDy3xgwra7w","f2oiftadk1","ms1000378","iti","","null","img/motor_3.png","68","motor","","","","","","",""
"578","","311582","HierDy3xgwra7w","f2oiftadk1","ms1000378","motor","","83","img/motor_2.png","83","motor","2","7","1","0","0","",""
"null","","311695","HierDy3xgwra7w","f2oiftadk1","ms1000378","iti","","null","img/motor_2.png","83","motor","","","","","","",""
"643","","312350","HierDy3xgwra7w","f2oiftadk1","ms1000378","motor","","70","img/motor_4.png","70","motor","4","8","1","0","0","",""
"null","","312463","HierDy3xgwra7w","f2oiftadk1","ms1000378","iti","","null","img/motor_4.png","70","motor","","","","","","",""
"643","","313117","HierDy3xgwra7w","f2oiftadk1","ms1000378","motor","","72","img/motor_5.png","72","motor","5","9","1","0","0","",""
"null","","313229","HierDy3xgwra7w","f2oiftadk1","ms1000378","iti","","null","img/motor_5.png","72","motor","","","","","","",""
"580","","313821","HierDy3xgwra7w","f2oiftadk1","ms1000378","motor","","68","img/motor_3.png","68","motor","3","10","1","0","0","",""
"null","","313933","HierDy3xgwra7w","f2oiftadk1","ms1000378","iti","","null","img/motor_3.png","68","motor","","","","","","",""
"530","","314473","HierDy3xgwra7w","f2oiftadk1","ms1000378","motor","","70","img/motor_4.png","70","motor","4","11","1","0","0","",""
"null","","314585","HierDy3xgwra7w","f2oiftadk1","ms1000378","iti","","null","img/motor_4.png","70","motor","","","","","","",""
"610","","315206","HierDy3xgwra7w","f2oiftadk1","ms1000378","motor","","70","img/motor_4.png","70","motor","4","12","1","0","0","",""
"null","","315318","HierDy3xgwra7w","f2oiftadk1","ms1000378","iti","","null","img/motor_4.png","70","motor","","","","","","",""
"574","","315905","HierDy3xgwra7w","f2oiftadk1","ms1000378","motor","","74","img/motor_6.png","74","motor","6","13","1","0","0","",""
"null","","316017","HierDy3xgwra7w","f2oiftadk1","ms1000378","iti","","null","img/motor_6.png","74","motor","","","","","","",""
"503","","316531","HierDy3xgwra7w","f2oiftadk1","ms1000378","motor","","72","img/motor_5.png","72","motor","5","14","1","0","0","",""
"null","","316642","HierDy3xgwra7w","f2oiftadk1","ms1000378","iti","","null","img/motor_5.png","72","motor","","","","","","",""
"536","","317189","HierDy3xgwra7w","f2oiftadk1","ms1000378","motor","","75","img/motor_7.png","75","motor","7","15","1","0","0","",""
"null","","317303","HierDy3xgwra7w","f2oiftadk1","ms1000378","iti","","null","img/motor_7.png","75","motor","","","","","","",""
"569","","317883","HierDy3xgwra7w","f2oiftadk1","ms1000378","motor","","83","img/motor_2.png","83","motor","2","16","1","0","0","",""
"null","","317995","HierDy3xgwra7w","f2oiftadk1","ms1000378","iti","","null","img/motor_2.png","83","motor","","","","","","",""
"567","","318574","HierDy3xgwra7w","f2oiftadk1","ms1000378","motor","","70","img/motor_4.png","70","motor","4","17","1","0","0","",""
"null","","318687","HierDy3xgwra7w","f2oiftadk1","ms1000378","iti","","null","img/motor_4.png","70","motor","","","","","","",""
"530","","319228","HierDy3xgwra7w","f2oiftadk1","ms1000378","motor","","74","img/motor_6.png","74","motor","6","18","1","0","0","",""
"null","","319340","HierDy3xgwra7w","f2oiftadk1","ms1000378","iti","","null","img/motor_6.png","74","motor","","","","","","",""
"590","","319941","HierDy3xgwra7w","f2oiftadk1","ms1000378","motor","","65","img/motor_1.png","65","motor","1","19","1","0","0","",""
"null","","320053","HierDy3xgwra7w","f2oiftadk1","ms1000378","iti","","null","img/motor_1.png","65","motor","","","","","","",""
"679","","320741","HierDy3xgwra7w","f2oiftadk1","ms1000378","motor","","72","img/motor_5.png","72","motor","5","20","1","0","0","",""
"null","","320854","HierDy3xgwra7w","f2oiftadk1","ms1000378","iti","","null","img/motor_5.png","72","motor","","","","","","",""
"495","","321359","HierDy3xgwra7w","f2oiftadk1","ms1000378","motor","","74","img/motor_6.png","74","motor","6","21","1","0","0","",""
"null","","321471","HierDy3xgwra7w","f2oiftadk1","ms1000378","iti","","null","img/motor_6.png","74","motor","","","","","","",""
"585","","322068","HierDy3xgwra7w","f2oiftadk1","ms1000378","motor","","76","img/motor_8.png","76","motor","8","22","1","0","0","",""
"null","","322180","HierDy3xgwra7w","f2oiftadk1","ms1000378","iti","","null","img/motor_8.png","76","motor","","","","","","",""
"571","","322763","HierDy3xgwra7w","f2oiftadk1","ms1000378","motor","","70","img/motor_4.png","70","motor","4","23","1","0","0","",""
"null","","322874","HierDy3xgwra7w","f2oiftadk1","ms1000378","iti","","null","img/motor_4.png","70","motor","","","","","","",""
"704","","323590","HierDy3xgwra7w","f2oiftadk1","ms1000378","motor","","72","img/motor_5.png","72","motor","5","24","1","0","0","",""
"null","","323702","HierDy3xgwra7w","f2oiftadk1","ms1000378","iti","","null","img/motor_5.png","72","motor","","","","","","",""
"860","","324573","HierDy3xgwra7w","f2oiftadk1","ms1000378","motor","","83","img/motor_2.png","83","motor","2","25","1","0","0","",""
"null","","324685","HierDy3xgwra7w","f2oiftadk1","ms1000378","iti","","null","img/motor_2.png","83","motor","","","","","","",""
"664","","325360","HierDy3xgwra7w","f2oiftadk1","ms1000378","motor","","83","img/motor_2.png","83","motor","2","26","1","0","0","",""
"null","","325472","HierDy3xgwra7w","f2oiftadk1","ms1000378","iti","","null","img/motor_2.png","83","motor","","","","","","",""
"535","","326020","HierDy3xgwra7w","f2oiftadk1","ms1000378","motor","","76","img/motor_8.png","76","motor","8","27","1","0","0","",""
"null","","326133","HierDy3xgwra7w","f2oiftadk1","ms1000378","iti","","null","img/motor_8.png","76","motor","","","","","","",""
"617","","326761","HierDy3xgwra7w","f2oiftadk1","ms1000378","motor","","70","img/motor_4.png","70","motor","4","28","1","0","0","",""
"null","","326873","HierDy3xgwra7w","f2oiftadk1","ms1000378","iti","","null","img/motor_4.png","70","motor","","","","","","",""
"542","","327427","HierDy3xgwra7w","f2oiftadk1","ms1000378","motor","","68","img/motor_3.png","68","motor","3","29","1","0","0","",""
"null","","327540","HierDy3xgwra7w","f2oiftadk1","ms1000378","iti","","null","img/motor_3.png","68","motor","","","","","","",""
"469","","328019","HierDy3xgwra7w","f2oiftadk1","ms1000378","motor","","68","img/motor_3.png","68","motor","3","30","1","0","0","",""
"null","","328132","HierDy3xgwra7w","f2oiftadk1","ms1000378","iti","","null","img/motor_3.png","68","motor","","","","","","",""
"549","","328692","HierDy3xgwra7w","f2oiftadk1","ms1000378","motor","","65","img/motor_1.png","65","motor","1","31","1","0","0","",""
"null","","328805","HierDy3xgwra7w","f2oiftadk1","ms1000378","iti","","null","img/motor_1.png","65","motor","","","","","","",""
"480","","329297","HierDy3xgwra7w","f2oiftadk1","ms1000378","motor","","72","img/motor_5.png","72","motor","5","32","1","0","0","",""
"null","","329409","HierDy3xgwra7w","f2oiftadk1","ms1000378","iti","","null","img/motor_5.png","72","motor","","","","","","",""
"436","","329860","HierDy3xgwra7w","f2oiftadk1","ms1000378","motor","","76","img/motor_8.png","76","motor","8","33","1","0","0","",""
"null","","329972","HierDy3xgwra7w","f2oiftadk1","ms1000378","iti","","null","img/motor_8.png","76","motor","","","","","","",""
"668","","330653","HierDy3xgwra7w","f2oiftadk1","ms1000378","motor","","83","img/motor_2.png","83","motor","2","34","1","0","0","",""
"null","","330765","HierDy3xgwra7w","f2oiftadk1","ms1000378","iti","","null","img/motor_2.png","83","motor","","","","","","",""
"566","","331342","HierDy3xgwra7w","f2oiftadk1","ms1000378","motor","","68","img/motor_3.png","68","motor","3","35","1","0","0","",""
"null","","331455","HierDy3xgwra7w","f2oiftadk1","ms1000378","iti","","null","img/motor_3.png","68","motor","","","","","","",""
"486","","331954","HierDy3xgwra7w","f2oiftadk1","ms1000378","motor","","65","img/motor_1.png","65","motor","1","36","1","0","0","",""
"null","","332067","HierDy3xgwra7w","f2oiftadk1","ms1000378","iti","","null","img/motor_1.png","65","motor","","","","","","",""
"490","","332569","HierDy3xgwra7w","f2oiftadk1","ms1000378","motor","","72","img/motor_5.png","72","motor","5","37","1","0","0","",""
"null","","332682","HierDy3xgwra7w","f2oiftadk1","ms1000378","iti","","null","img/motor_5.png","72","motor","","","","","","",""
"485","","333179","HierDy3xgwra7w","f2oiftadk1","ms1000378","motor","","76","img/motor_8.png","76","motor","8","38","1","0","0","",""
"null","","333292","HierDy3xgwra7w","f2oiftadk1","ms1000378","iti","","null","img/motor_8.png","76","motor","","","","","","",""
"631","","333935","HierDy3xgwra7w","f2oiftadk1","ms1000378","motor","","83","img/motor_2.png","83","motor","2","39","1","0","0","",""
"null","","334047","HierDy3xgwra7w","f2oiftadk1","ms1000378","iti","","null","img/motor_2.png","83","motor","","","","","","",""
"545","","334605","HierDy3xgwra7w","f2oiftadk1","ms1000378","motor","","83","img/motor_2.png","83","motor","2","40","1","0","0","",""
"null","","334718","HierDy3xgwra7w","f2oiftadk1","ms1000378","iti","","null","img/motor_2.png","83","motor","","","","","","",""
"543","","335272","HierDy3xgwra7w","f2oiftadk1","ms1000378","motor","","76","img/motor_8.png","76","motor","8","41","1","0","0","",""
"null","","335384","HierDy3xgwra7w","f2oiftadk1","ms1000378","iti","","null","img/motor_8.png","76","motor","","","","","","",""
"835","","336231","HierDy3xgwra7w","f2oiftadk1","ms1000378","motor","","65","img/motor_1.png","65","motor","1","42","1","0","0","",""
"null","","336343","HierDy3xgwra7w","f2oiftadk1","ms1000378","iti","","null","img/motor_1.png","65","motor","","","","","","",""
"826","","337181","HierDy3xgwra7w","f2oiftadk1","ms1000378","motor","","65","img/motor_1.png","65","motor","1","43","1","0","0","",""
"null","","337293","HierDy3xgwra7w","f2oiftadk1","ms1000378","iti","","null","img/motor_1.png","65","motor","","","","","","",""
"561","","337868","HierDy3xgwra7w","f2oiftadk1","ms1000378","motor","","72","img/motor_5.png","72","motor","5","44","1","0","0","",""
"null","","337979","HierDy3xgwra7w","f2oiftadk1","ms1000378","iti","","null","img/motor_5.png","72","motor","","","","","","",""
"403","","338395","HierDy3xgwra7w","f2oiftadk1","ms1000378","motor","","74","img/motor_6.png","74","motor","6","45","1","0","0","",""
"null","","338507","HierDy3xgwra7w","f2oiftadk1","ms1000378","iti","","null","img/motor_6.png","74","motor","","","","","","",""
"721","","339239","HierDy3xgwra7w","f2oiftadk1","ms1000378","motor","","68","img/motor_3.png","68","motor","3","46","1","0","0","",""
"null","","339351","HierDy3xgwra7w","f2oiftadk1","ms1000378","iti","","null","img/motor_3.png","68","motor","","","","","","",""
"508","","339871","HierDy3xgwra7w","f2oiftadk1","ms1000378","motor","","83","img/motor_2.png","83","motor","2","47","1","0","0","",""
"null","","339984","HierDy3xgwra7w","f2oiftadk1","ms1000378","iti","","null","img/motor_2.png","83","motor","","","","","","",""
"629","","340624","HierDy3xgwra7w","f2oiftadk1","ms1000378","motor","","74","img/motor_6.png","74","motor","6","48","1","0","0","",""
"null","","340736","HierDy3xgwra7w","f2oiftadk1","ms1000378","iti","","null","img/motor_6.png","74","motor","","","","","","",""
"668","","341415","HierDy3xgwra7w","f2oiftadk1","ms1000378","motor","","65","img/motor_1.png","65","motor","1","49","1","0","0","",""
"null","","341528","HierDy3xgwra7w","f2oiftadk1","ms1000378","iti","","null","img/motor_1.png","65","motor","","","","","","",""
"661","","342200","HierDy3xgwra7w","f2oiftadk1","ms1000378","motor","","75","img/motor_7.png","75","motor","7","50","1","0","0","",""
"null","","342313","HierDy3xgwra7w","f2oiftadk1","ms1000378","iti","","null","img/motor_7.png","75","motor","","","","","","",""
"473","","342797","HierDy3xgwra7w","f2oiftadk1","ms1000378","motor","","72","img/motor_5.png","72","motor","5","51","1","0","0","",""
"null","","342908","HierDy3xgwra7w","f2oiftadk1","ms1000378","iti","","null","img/motor_5.png","72","motor","","","","","","",""
"533","","343453","HierDy3xgwra7w","f2oiftadk1","ms1000378","motor","","68","img/motor_3.png","68","motor","3","52","1","0","0","",""
"null","","343566","HierDy3xgwra7w","f2oiftadk1","ms1000378","iti","","null","img/motor_3.png","68","motor","","","","","","",""
"473","","344050","HierDy3xgwra7w","f2oiftadk1","ms1000378","motor","","70","img/motor_4.png","70","motor","4","53","1","0","0","",""
"null","","344162","HierDy3xgwra7w","f2oiftadk1","ms1000378","iti","","null","img/motor_4.png","70","motor","","","","","","",""
"967","","345141","HierDy3xgwra7w","f2oiftadk1","ms1000378","motor","","75","img/motor_7.png","75","motor","7","54","1","0","0","",""
"null","","345253","HierDy3xgwra7w","f2oiftadk1","ms1000378","iti","","null","img/motor_7.png","75","motor","","","","","","",""
"484","","345747","HierDy3xgwra7w","f2oiftadk1","ms1000378","motor","","74","img/motor_6.png","74","motor","6","55","1","0","0","",""
"null","","345859","HierDy3xgwra7w","f2oiftadk1","ms1000378","iti","","null","img/motor_6.png","74","motor","","","","","","",""
"413","","346285","HierDy3xgwra7w","f2oiftadk1","ms1000378","motor","","75","img/motor_7.png","75","motor","7","56","1","0","0","",""
"null","","346396","HierDy3xgwra7w","f2oiftadk1","ms1000378","iti","","null","img/motor_7.png","75","motor","","","","","","",""
"425","","346832","HierDy3xgwra7w","f2oiftadk1","ms1000378","motor","","76","img/motor_8.png","76","motor","8","57","1","0","0","",""
"null","","346943","HierDy3xgwra7w","f2oiftadk1","ms1000378","iti","","null","img/motor_8.png","76","motor","","","","","","",""
"793","","347748","HierDy3xgwra7w","f2oiftadk1","ms1000378","motor","","74","img/motor_6.png","74","motor","6","58","1","0","0","",""
"null","","347860","HierDy3xgwra7w","f2oiftadk1","ms1000378","iti","","null","img/motor_6.png","74","motor","","","","","","",""
"401","","348272","HierDy3xgwra7w","f2oiftadk1","ms1000378","motor","","75","img/motor_7.png","75","motor","7","59","1","0","0","",""
"null","","348384","HierDy3xgwra7w","f2oiftadk1","ms1000378","iti","","null","img/motor_7.png","75","motor","","","","","","",""
"684","","349080","HierDy3xgwra7w","f2oiftadk1","ms1000378","motor","","68","img/motor_3.png","68","motor","3","60","1","0","0","",""
"null","","349191","HierDy3xgwra7w","f2oiftadk1","ms1000378","iti","","null","img/motor_3.png","68","motor","","","","","","",""
"539","","349741","HierDy3xgwra7w","f2oiftadk1","ms1000378","motor","","76","img/motor_8.png","76","motor","8","61","1","0","0","",""
"null","","349855","HierDy3xgwra7w","f2oiftadk1","ms1000378","iti","","null","img/motor_8.png","76","motor","","","","","","",""
"578","","350444","HierDy3xgwra7w","f2oiftadk1","ms1000378","motor","","65","img/motor_1.png","65","motor","1","62","1","0","0","",""
"null","","350556","HierDy3xgwra7w","f2oiftadk1","ms1000378","iti","","null","img/motor_1.png","65","motor","","","","","","",""
"741","","351310","HierDy3xgwra7w","f2oiftadk1","ms1000378","motor","","76","img/motor_8.png","76","motor","8","63","1","0","0","",""
"null","","351421","HierDy3xgwra7w","f2oiftadk1","ms1000378","iti","","null","img/motor_8.png","76","motor","","","","","","",""
"619","","352052","HierDy3xgwra7w","f2oiftadk1","ms1000378","motor","","68","img/motor_3.png","68","motor","3","64","1","0","0","",""
"null","","352165","HierDy3xgwra7w","f2oiftadk1","ms1000378","iti","","null","img/motor_3.png","68","motor","","","","","","",""
"507","","352683","HierDy3xgwra7w","f2oiftadk1","ms1000378","motor","","74","img/motor_6.png","74","motor","6","65","1","0","0","",""
"null","","352795","HierDy3xgwra7w","f2oiftadk1","ms1000378","iti","","null","img/motor_6.png","74","motor","","","","","","",""
"480","","353287","HierDy3xgwra7w","f2oiftadk1","ms1000378","motor","","75","img/motor_7.png","75","motor","7","66","1","0","0","",""
"null","","353399","HierDy3xgwra7w","f2oiftadk1","ms1000378","iti","","null","img/motor_7.png","75","motor","","","","","","",""
"664","","354073","HierDy3xgwra7w","f2oiftadk1","ms1000378","motor","","83","img/motor_2.png","83","motor","2","67","1","0","0","",""
"null","","354185","HierDy3xgwra7w","f2oiftadk1","ms1000378","iti","","null","img/motor_2.png","83","motor","","","","","","",""
"605","","354802","HierDy3xgwra7w","f2oiftadk1","ms1000378","motor","","70","img/motor_4.png","70","motor","4","68","1","0","0","",""
"null","","354914","HierDy3xgwra7w","f2oiftadk1","ms1000378","iti","","null","img/motor_4.png","70","motor","","","","","","",""
"483","","355409","HierDy3xgwra7w","f2oiftadk1","ms1000378","motor","","65","img/motor_1.png","65","motor","1","69","1","0","0","",""
"null","","355521","HierDy3xgwra7w","f2oiftadk1","ms1000378","iti","","null","img/motor_1.png","65","motor","","","","","","",""
"518","","356051","HierDy3xgwra7w","f2oiftadk1","ms1000378","motor","","68","img/motor_3.png","68","motor","3","70","1","0","0","",""
"null","","356163","HierDy3xgwra7w","f2oiftadk1","ms1000378","iti","","null","img/motor_3.png","68","motor","","","","","","",""
"535","","356710","HierDy3xgwra7w","f2oiftadk1","ms1000378","motor","","68","img/motor_3.png","68","motor","3","71","1","0","0","",""
"null","","356822","HierDy3xgwra7w","f2oiftadk1","ms1000378","iti","","null","img/motor_3.png","68","motor","","","","","","",""
"469","","357303","HierDy3xgwra7w","f2oiftadk1","ms1000378","motor","","83","img/motor_2.png","83","motor","2","72","1","0","0","",""
"null","","357415","HierDy3xgwra7w","f2oiftadk1","ms1000378","iti","","null","img/motor_2.png","83","motor","","","","","","",""
"452","","357878","HierDy3xgwra7w","f2oiftadk1","ms1000378","motor","","70","img/motor_4.png","70","motor","4","73","1","0","0","",""
"null","","357991","HierDy3xgwra7w","f2oiftadk1","ms1000378","iti","","null","img/motor_4.png","70","motor","","","","","","",""
"649","","358652","HierDy3xgwra7w","f2oiftadk1","ms1000378","motor","","75","img/motor_7.png","75","motor","7","74","1","0","0","",""
"null","","358764","HierDy3xgwra7w","f2oiftadk1","ms1000378","iti","","null","img/motor_7.png","75","motor","","","","","","",""
"363","","359138","HierDy3xgwra7w","f2oiftadk1","ms1000378","motor","","75","img/motor_7.png","75","motor","7","75","1","0","0","",""
"null","","359251","HierDy3xgwra7w","f2oiftadk1","ms1000378","iti","","null","img/motor_7.png","75","motor","","","","","","",""
"443","","359705","HierDy3xgwra7w","f2oiftadk1","ms1000378","motor","","74","img/motor_6.png","74","motor","6","76","1","0","0","",""
"null","","359816","HierDy3xgwra7w","f2oiftadk1","ms1000378","iti","","null","img/motor_6.png","74","motor","","","","","","",""
"712","","360540","HierDy3xgwra7w","f2oiftadk1","ms1000378","motor","","68","img/motor_3.png","68","motor","3","77","1","0","0","",""
"null","","360653","HierDy3xgwra7w","f2oiftadk1","ms1000378","iti","","null","img/motor_3.png","68","motor","","","","","","",""
"392","","361055","HierDy3xgwra7w","f2oiftadk1","ms1000378","motor","","83","img/motor_2.png","83","motor","2","78","1","0","0","",""
"null","","361167","HierDy3xgwra7w","f2oiftadk1","ms1000378","iti","","null","img/motor_2.png","83","motor","","","","","","",""
"419","","361597","HierDy3xgwra7w","f2oiftadk1","ms1000378","motor","","65","img/motor_1.png","65","motor","1","79","1","0","0","",""
"null","","361711","HierDy3xgwra7w","f2oiftadk1","ms1000378","iti","","null","img/motor_1.png","65","motor","","","","","","",""
"460","","362183","HierDy3xgwra7w","f2oiftadk1","ms1000378","motor","","72","img/motor_5.png","72","motor","5","80","1","0","0","",""
"null","","362295","HierDy3xgwra7w","f2oiftadk1","ms1000378","iti","","null","img/motor_5.png","72","motor","","","","","","",""
"382","","362689","HierDy3xgwra7w","f2oiftadk1","ms1000378","motor","","74","img/motor_6.png","74","motor","6","81","1","0","0","",""
"null","","362802","HierDy3xgwra7w","f2oiftadk1","ms1000378","iti","","null","img/motor_6.png","74","motor","","","","","","",""
"631","","363445","HierDy3xgwra7w","f2oiftadk1","ms1000378","motor","","83","img/motor_2.png","83","motor","2","82","1","0","0","",""
"null","","363558","HierDy3xgwra7w","f2oiftadk1","ms1000378","iti","","null","img/motor_2.png","83","motor","","","","","","",""
"543","","364111","HierDy3xgwra7w","f2oiftadk1","ms1000378","motor","","72","img/motor_5.png","72","motor","5","83","1","0","0","",""
"null","","364223","HierDy3xgwra7w","f2oiftadk1","ms1000378","iti","","null","img/motor_5.png","72","motor","","","","","","",""
"485","","364719","HierDy3xgwra7w","f2oiftadk1","ms1000378","motor","","65","img/motor_1.png","65","motor","1","84","1","0","0","",""
"null","","364831","HierDy3xgwra7w","f2oiftadk1","ms1000378","iti","","null","img/motor_1.png","65","motor","","","","","","",""
"534","","365377","HierDy3xgwra7w","f2oiftadk1","ms1000378","motor","","70","img/motor_4.png","70","motor","4","85","1","0","0","",""
"null","","365490","HierDy3xgwra7w","f2oiftadk1","ms1000378","iti","","null","img/motor_4.png","70","motor","","","","","","",""
"519","","366020","HierDy3xgwra7w","f2oiftadk1","ms1000378","motor","","68","img/motor_3.png","68","motor","3","86","1","0","0","",""
"null","","366132","HierDy3xgwra7w","f2oiftadk1","ms1000378","iti","","null","img/motor_3.png","68","motor","","","","","","",""
"583","","366728","HierDy3xgwra7w","f2oiftadk1","ms1000378","motor","","75","img/motor_7.png","75","motor","7","87","1","0","0","",""
"null","","366840","HierDy3xgwra7w","f2oiftadk1","ms1000378","iti","","null","img/motor_7.png","75","motor","","","","","","",""
"568","","367420","HierDy3xgwra7w","f2oiftadk1","ms1000378","motor","","65","img/motor_1.png","65","motor","1","88","1","0","0","",""
"null","","367532","HierDy3xgwra7w","f2oiftadk1","ms1000378","iti","","null","img/motor_1.png","65","motor","","","","","","",""
"596","","368139","HierDy3xgwra7w","f2oiftadk1","ms1000378","motor","","70","img/motor_4.png","70","motor","4","89","1","0","0","",""
"null","","368251","HierDy3xgwra7w","f2oiftadk1","ms1000378","iti","","null","img/motor_4.png","70","motor","","","","","","",""
"496","","368760","HierDy3xgwra7w","f2oiftadk1","ms1000378","motor","","65","img/motor_1.png","65","motor","1","90","1","0","0","",""
"null","","368872","HierDy3xgwra7w","f2oiftadk1","ms1000378","iti","","null","img/motor_1.png","65","motor","","","","","","",""
"1057","","369940","HierDy3xgwra7w","f2oiftadk1","ms1000378","motor","","68","img/motor_3.png","68","motor","3","91","1","0","0","",""
"null","","370052","HierDy3xgwra7w","f2oiftadk1","ms1000378","iti","","null","img/motor_3.png","68","motor","","","","","","",""
"463","","370526","HierDy3xgwra7w","f2oiftadk1","ms1000378","motor","","65","img/motor_1.png","65","motor","1","92","1","0","0","",""
"null","","370640","HierDy3xgwra7w","f2oiftadk1","ms1000378","iti","","null","img/motor_1.png","65","motor","","","","","","",""
"513","","371165","HierDy3xgwra7w","f2oiftadk1","ms1000378","motor","","76","img/motor_8.png","76","motor","8","93","1","0","0","",""
"null","","371277","HierDy3xgwra7w","f2oiftadk1","ms1000378","iti","","null","img/motor_8.png","76","motor","","","","","","",""
"408","","371696","HierDy3xgwra7w","f2oiftadk1","ms1000378","motor","","72","img/motor_5.png","72","motor","5","94","1","0","0","",""
"null","","371807","HierDy3xgwra7w","f2oiftadk1","ms1000378","iti","","null","img/motor_5.png","72","motor","","","","","","",""
"571","","372391","HierDy3xgwra7w","f2oiftadk1","ms1000378","motor","","70","img/motor_4.png","70","motor","4","95","1","0","0","",""
"null","","372502","HierDy3xgwra7w","f2oiftadk1","ms1000378","iti","","null","img/motor_4.png","70","motor","","","","","","",""
"443","","372957","HierDy3xgwra7w","f2oiftadk1","ms1000378","motor","","74","img/motor_7.png","75","motor","7","96","0","1","0","",""
"721","","373690","HierDy3xgwra7w","f2oiftadk1","ms1000378","motorRepeat","","75","img/motor_7.png","75","motor","7","96","1","0","0","",""
"null","","373803","HierDy3xgwra7w","f2oiftadk1","ms1000378","iti","","null","img/motor_7.png","75","motor","","","","","","",""
"628","","374443","HierDy3xgwra7w","f2oiftadk1","ms1000378","motor","","70","img/motor_4.png","70","motor","4","97","1","0","0","",""
"null","","374555","HierDy3xgwra7w","f2oiftadk1","ms1000378","iti","","null","img/motor_4.png","70","motor","","","","","","",""
"525","","375090","HierDy3xgwra7w","f2oiftadk1","ms1000378","motor","","72","img/motor_5.png","72","motor","5","98","1","0","0","",""
"null","","375203","HierDy3xgwra7w","f2oiftadk1","ms1000378","iti","","null","img/motor_5.png","72","motor","","","","","","",""
"396","","375610","HierDy3xgwra7w","f2oiftadk1","ms1000378","motor","","76","img/motor_8.png","76","motor","8","99","1","0","0","",""
"null","","375723","HierDy3xgwra7w","f2oiftadk1","ms1000378","iti","","null","img/motor_8.png","76","motor","","","","","","",""
"443","","376178","HierDy3xgwra7w","f2oiftadk1","ms1000378","motor","","65","img/motor_1.png","65","motor","1","100","1","0","0","",""
"null","","376290","HierDy3xgwra7w","f2oiftadk1","ms1000378","iti","","null","img/motor_1.png","65","motor","","","","","","",""
"444","","376745","HierDy3xgwra7w","f2oiftadk1","ms1000378","motor","","72","img/motor_5.png","72","motor","5","101","1","0","0","",""
"null","","376857","HierDy3xgwra7w","f2oiftadk1","ms1000378","iti","","null","img/motor_5.png","72","motor","","","","","","",""
"360","","377228","HierDy3xgwra7w","f2oiftadk1","ms1000378","motor","","76","img/motor_8.png","76","motor","8","102","1","0","0","",""
"null","","377340","HierDy3xgwra7w","f2oiftadk1","ms1000378","iti","","null","img/motor_8.png","76","motor","","","","","","",""
"424","","377776","HierDy3xgwra7w","f2oiftadk1","ms1000378","motor","","65","img/motor_1.png","65","motor","1","103","1","0","0","",""
"null","","377888","HierDy3xgwra7w","f2oiftadk1","ms1000378","iti","","null","img/motor_1.png","65","motor","","","","","","",""
"1182","","379082","HierDy3xgwra7w","f2oiftadk1","ms1000378","motor","","68","img/motor_3.png","68","motor","3","104","1","0","0","",""
"null","","379193","HierDy3xgwra7w","f2oiftadk1","ms1000378","iti","","null","img/motor_3.png","68","motor","","","","","","",""
"568","","379772","HierDy3xgwra7w","f2oiftadk1","ms1000378","motor","","65","img/motor_1.png","65","motor","1","105","1","0","0","",""
"null","","379885","HierDy3xgwra7w","f2oiftadk1","ms1000378","iti","","null","img/motor_1.png","65","motor","","","","","","",""
"582","","380480","HierDy3xgwra7w","f2oiftadk1","ms1000378","motor","","76","img/motor_8.png","76","motor","8","106","1","0","0","",""
"null","","380592","HierDy3xgwra7w","f2oiftadk1","ms1000378","iti","","null","img/motor_8.png","76","motor","","","","","","",""
"918","","381523","HierDy3xgwra7w","f2oiftadk1","ms1000378","motor","","70","img/motor_4.png","70","motor","4","107","1","0","0","",""
"null","","381636","HierDy3xgwra7w","f2oiftadk1","ms1000378","iti","","null","img/motor_4.png","70","motor","","","","","","",""
"479","","382127","HierDy3xgwra7w","f2oiftadk1","ms1000378","motor","","68","img/motor_3.png","68","motor","3","108","1","0","0","",""
"null","","382240","HierDy3xgwra7w","f2oiftadk1","ms1000378","iti","","null","img/motor_3.png","68","motor","","","","","","",""
"577","","382829","HierDy3xgwra7w","f2oiftadk1","ms1000378","motor","","74","img/motor_6.png","74","motor","6","109","1","0","0","",""
"null","","382941","HierDy3xgwra7w","f2oiftadk1","ms1000378","iti","","null","img/motor_6.png","74","motor","","","","","","",""
"677","","383631","HierDy3xgwra7w","f2oiftadk1","ms1000378","motor","","68","img/motor_3.png","68","motor","3","110","1","0","0","",""
"null","","383743","HierDy3xgwra7w","f2oiftadk1","ms1000378","iti","","null","img/motor_3.png","68","motor","","","","","","",""
"485","","384239","HierDy3xgwra7w","f2oiftadk1","ms1000378","motor","","74","img/motor_6.png","74","motor","6","111","1","0","0","",""
"null","","384350","HierDy3xgwra7w","f2oiftadk1","ms1000378","iti","","null","img/motor_6.png","74","motor","","","","","","",""
"520","","384882","HierDy3xgwra7w","f2oiftadk1","ms1000378","motor","","70","img/motor_4.png","70","motor","4","112","1","0","0","",""
"null","","384994","HierDy3xgwra7w","f2oiftadk1","ms1000378","iti","","null","img/motor_4.png","70","motor","","","","","","",""
"560","","385566","HierDy3xgwra7w","f2oiftadk1","ms1000378","motor","","83","img/motor_2.png","83","motor","2","113","1","0","0","",""
"null","","385677","HierDy3xgwra7w","f2oiftadk1","ms1000378","iti","","null","img/motor_2.png","83","motor","","","","","","",""
"413","","386101","HierDy3xgwra7w","f2oiftadk1","ms1000378","motor","","72","img/motor_5.png","72","motor","5","114","1","0","0","",""
"null","","386213","HierDy3xgwra7w","f2oiftadk1","ms1000378","iti","","null","img/motor_5.png","72","motor","","","","","","",""
"458","","386683","HierDy3xgwra7w","f2oiftadk1","ms1000378","motor","","83","img/motor_2.png","83","motor","2","115","1","0","0","",""
"null","","386795","HierDy3xgwra7w","f2oiftadk1","ms1000378","iti","","null","img/motor_2.png","83","motor","","","","","","",""
"785","","387591","HierDy3xgwra7w","f2oiftadk1","ms1000378","motor","","75","img/motor_7.png","75","motor","7","116","1","0","0","",""
"null","","387704","HierDy3xgwra7w","f2oiftadk1","ms1000378","iti","","null","img/motor_7.png","75","motor","","","","","","",""
"443","","388159","HierDy3xgwra7w","f2oiftadk1","ms1000378","motor","","74","img/motor_6.png","74","motor","6","117","1","0","0","",""
"null","","388272","HierDy3xgwra7w","f2oiftadk1","ms1000378","iti","","null","img/motor_6.png","74","motor","","","","","","",""
"515","","388797","HierDy3xgwra7w","f2oiftadk1","ms1000378","motor","","65","img/motor_1.png","65","motor","1","118","1","0","0","",""
"null","","388910","HierDy3xgwra7w","f2oiftadk1","ms1000378","iti","","null","img/motor_1.png","65","motor","","","","","","",""
"485","","389409","HierDy3xgwra7w","f2oiftadk1","ms1000378","motor","","74","img/motor_6.png","74","motor","6","119","1","0","0","",""
"null","","389521","HierDy3xgwra7w","f2oiftadk1","ms1000378","iti","","null","img/motor_6.png","74","motor","","","","","","",""
"568","","390104","HierDy3xgwra7w","f2oiftadk1","ms1000378","motor","","65","img/motor_1.png","65","motor","1","120","1","0","0","",""
"null","","390217","HierDy3xgwra7w","f2oiftadk1","ms1000378","iti","","null","img/motor_1.png","65","motor","","","","","","",""
"536","","390765","HierDy3xgwra7w","f2oiftadk1","ms1000378","motor","","83","img/motor_2.png","83","motor","2","121","1","0","0","",""
"null","","390878","HierDy3xgwra7w","f2oiftadk1","ms1000378","iti","","null","img/motor_2.png","83","motor","","","","","","",""
"535","","391426","HierDy3xgwra7w","f2oiftadk1","ms1000378","motor","","72","img/motor_5.png","72","motor","5","122","1","0","0","",""
"null","","391541","HierDy3xgwra7w","f2oiftadk1","ms1000378","iti","","null","img/motor_5.png","72","motor","","","","","","",""
"433","","391985","HierDy3xgwra7w","f2oiftadk1","ms1000378","motor","","76","img/motor_8.png","76","motor","8","123","1","0","0","",""
"null","","392097","HierDy3xgwra7w","f2oiftadk1","ms1000378","iti","","null","img/motor_8.png","76","motor","","","","","","",""
"621","","392732","HierDy3xgwra7w","f2oiftadk1","ms1000378","motor","","74","img/motor_6.png","74","motor","6","124","1","0","0","",""
"null","","392843","HierDy3xgwra7w","f2oiftadk1","ms1000378","iti","","null","img/motor_6.png","74","motor","","","","","","",""
"484","","393339","HierDy3xgwra7w","f2oiftadk1","ms1000378","motor","","74","img/motor_6.png","74","motor","6","125","1","0","0","",""
"null","","393451","HierDy3xgwra7w","f2oiftadk1","ms1000378","iti","","null","img/motor_6.png","74","motor","","","","","","",""
"428","","393890","HierDy3xgwra7w","f2oiftadk1","ms1000378","motor","","75","img/motor_7.png","75","motor","7","126","1","0","0","",""
"null","","394003","HierDy3xgwra7w","f2oiftadk1","ms1000378","iti","","null","img/motor_7.png","75","motor","","","","","","",""
"491","","394508","HierDy3xgwra7w","f2oiftadk1","ms1000378","motor","","70","img/motor_4.png","70","motor","4","127","1","0","0","",""
"null","","394620","HierDy3xgwra7w","f2oiftadk1","ms1000378","iti","","null","img/motor_4.png","70","motor","","","","","","",""
"539","","395172","HierDy3xgwra7w","f2oiftadk1","ms1000378","motor","","72","img/motor_5.png","72","motor","5","128","1","0","0","",""
"null","","395285","HierDy3xgwra7w","f2oiftadk1","ms1000378","iti","","null","img/motor_5.png","72","motor","","","","","","",""
"492","","395789","HierDy3xgwra7w","f2oiftadk1","ms1000378","motor","","65","img/motor_1.png","65","motor","1","129","1","0","0","",""
"null","","395901","HierDy3xgwra7w","f2oiftadk1","ms1000378","iti","","null","img/motor_1.png","65","motor","","","","","","",""
"437","","396350","HierDy3xgwra7w","f2oiftadk1","ms1000378","motor","","72","img/motor_5.png","72","motor","5","130","1","0","0","",""
"null","","396464","HierDy3xgwra7w","f2oiftadk1","ms1000378","iti","","null","img/motor_5.png","72","motor","","","","","","",""
"497","","396973","HierDy3xgwra7w","f2oiftadk1","ms1000378","motor","","68","img/motor_3.png","68","motor","3","131","1","0","0","",""
"null","","397085","HierDy3xgwra7w","f2oiftadk1","ms1000378","iti","","null","img/motor_3.png","68","motor","","","","","","",""
"763","","397860","HierDy3xgwra7w","f2oiftadk1","ms1000378","motor","","74","img/motor_6.png","74","motor","6","132","1","0","0","",""
"null","","397973","HierDy3xgwra7w","f2oiftadk1","ms1000378","iti","","null","img/motor_6.png","74","motor","","","","","","",""
"641","","398626","HierDy3xgwra7w","f2oiftadk1","ms1000378","motor","","83","img/motor_2.png","83","motor","2","133","1","0","0","",""
"null","","398737","HierDy3xgwra7w","f2oiftadk1","ms1000378","iti","","null","img/motor_2.png","83","motor","","","","","","",""
"560","","399308","HierDy3xgwra7w","f2oiftadk1","ms1000378","motor","","74","img/motor_6.png","74","motor","6","134","1","0","0","",""
"null","","399422","HierDy3xgwra7w","f2oiftadk1","ms1000378","iti","","null","img/motor_6.png","74","motor","","","","","","",""
"660","","400095","HierDy3xgwra7w","f2oiftadk1","ms1000378","motor","","68","img/motor_3.png","68","motor","3","135","1","0","0","",""
"null","","400207","HierDy3xgwra7w","f2oiftadk1","ms1000378","iti","","null","img/motor_3.png","68","motor","","","","","","",""
"478","","400697","HierDy3xgwra7w","f2oiftadk1","ms1000378","motor","","74","img/motor_6.png","74","motor","6","136","1","0","0","",""
"null","","400810","HierDy3xgwra7w","f2oiftadk1","ms1000378","iti","","null","img/motor_6.png","74","motor","","","","","","",""
"635","","401455","HierDy3xgwra7w","f2oiftadk1","ms1000378","motor","","76","img/motor_8.png","76","motor","8","137","1","0","0","",""
"null","","401569","HierDy3xgwra7w","f2oiftadk1","ms1000378","iti","","null","img/motor_8.png","76","motor","","","","","","",""
"472","","402052","HierDy3xgwra7w","f2oiftadk1","ms1000378","motor","","65","img/motor_1.png","65","motor","1","138","1","0","0","",""
"null","","402164","HierDy3xgwra7w","f2oiftadk1","ms1000378","iti","","null","img/motor_1.png","65","motor","","","","","","",""
"559","","402734","HierDy3xgwra7w","f2oiftadk1","ms1000378","motor","","70","img/motor_4.png","70","motor","4","139","1","0","0","",""
"null","","402847","HierDy3xgwra7w","f2oiftadk1","ms1000378","iti","","null","img/motor_4.png","70","motor","","","","","","",""
"560","","403418","HierDy3xgwra7w","f2oiftadk1","ms1000378","motor","","75","img/motor_7.png","75","motor","7","140","1","0","0","",""
"null","","403530","HierDy3xgwra7w","f2oiftadk1","ms1000378","iti","","null","img/motor_7.png","75","motor","","","","","","",""
"462","","404004","HierDy3xgwra7w","f2oiftadk1","ms1000378","motor","","74","img/motor_6.png","74","motor","6","141","1","0","0","",""
"null","","404117","HierDy3xgwra7w","f2oiftadk1","ms1000378","iti","","null","img/motor_6.png","74","motor","","","","","","",""
"463","","404591","HierDy3xgwra7w","f2oiftadk1","ms1000378","motor","","72","img/motor_5.png","72","motor","5","142","1","0","0","",""
"null","","404704","HierDy3xgwra7w","f2oiftadk1","ms1000378","iti","","null","img/motor_5.png","72","motor","","","","","","",""
"493","","405208","HierDy3xgwra7w","f2oiftadk1","ms1000378","motor","","70","img/motor_4.png","70","motor","4","143","1","0","0","",""
"null","","405320","HierDy3xgwra7w","f2oiftadk1","ms1000378","iti","","null","img/motor_4.png","70","motor","","","","","","",""
"415","","405748","HierDy3xgwra7w","f2oiftadk1","ms1000378","motor","","76","img/motor_8.png","76","motor","8","144","1","0","0","",""
"null","","405860","HierDy3xgwra7w","f2oiftadk1","ms1000378","iti","","null","img/motor_8.png","76","motor","","","","","","",""
"552","","406426","HierDy3xgwra7w","f2oiftadk1","ms1000378","motor","","68","img/motor_3.png","68","motor","3","145","1","0","0","",""
"null","","406538","HierDy3xgwra7w","f2oiftadk1","ms1000378","iti","","null","img/motor_3.png","68","motor","","","","","","",""
"425","","406975","HierDy3xgwra7w","f2oiftadk1","ms1000378","motor","","65","img/motor_1.png","65","motor","1","146","1","0","0","",""
"null","","407088","HierDy3xgwra7w","f2oiftadk1","ms1000378","iti","","null","img/motor_1.png","65","motor","","","","","","",""
"581","","407682","HierDy3xgwra7w","f2oiftadk1","ms1000378","motor","","75","img/motor_7.png","75","motor","7","147","1","0","0","",""
"null","","407793","HierDy3xgwra7w","f2oiftadk1","ms1000378","iti","","null","img/motor_7.png","75","motor","","","","","","",""
"366","","408169","HierDy3xgwra7w","f2oiftadk1","ms1000378","motor","","70","img/motor_4.png","70","motor","4","148","1","0","0","",""
"null","","408283","HierDy3xgwra7w","f2oiftadk1","ms1000378","iti","","null","img/motor_4.png","70","motor","","","","","","",""
"388","","408682","HierDy3xgwra7w","f2oiftadk1","ms1000378","motor","","68","img/motor_3.png","68","motor","3","149","1","0","0","",""
"null","","408794","HierDy3xgwra7w","f2oiftadk1","ms1000378","iti","","null","img/motor_3.png","68","motor","","","","","","",""
"398","","409204","HierDy3xgwra7w","f2oiftadk1","ms1000378","motor","","70","img/motor_4.png","70","motor","4","150","1","0","0","",""
"null","","409316","HierDy3xgwra7w","f2oiftadk1","ms1000378","iti","","null","img/motor_4.png","70","motor","","","","","","",""
"503","","409831","HierDy3xgwra7w","f2oiftadk1","ms1000378","motor","","83","img/motor_2.png","83","motor","2","151","1","0","0","",""
"null","","409943","HierDy3xgwra7w","f2oiftadk1","ms1000378","iti","","null","img/motor_2.png","83","motor","","","","","","",""
"490","","410444","HierDy3xgwra7w","f2oiftadk1","ms1000378","motor","","65","img/motor_1.png","65","motor","1","152","1","0","0","",""
"null","","410558","HierDy3xgwra7w","f2oiftadk1","ms1000378","iti","","null","img/motor_1.png","65","motor","","","","","","",""
"553","","411123","HierDy3xgwra7w","f2oiftadk1","ms1000378","motor","","76","img/motor_8.png","76","motor","8","153","1","0","0","",""
"null","","411236","HierDy3xgwra7w","f2oiftadk1","ms1000378","iti","","null","img/motor_8.png","76","motor","","","","","","",""
"430","","411679","HierDy3xgwra7w","f2oiftadk1","ms1000378","motor","","74","img/motor_6.png","74","motor","6","154","1","0","0","",""
"null","","411790","HierDy3xgwra7w","f2oiftadk1","ms1000378","iti","","null","img/motor_6.png","74","motor","","","","","","",""
"1677","","413480","HierDy3xgwra7w","f2oiftadk1","ms1000378","motor","","76","img/motor_8.png","76","motor","8","155","1","0","0","",""
"null","","413593","HierDy3xgwra7w","f2oiftadk1","ms1000378","iti","","null","img/motor_8.png","76","motor","","","","","","",""
"558","","414164","HierDy3xgwra7w","f2oiftadk1","ms1000378","motor","","68","img/motor_3.png","68","motor","3","156","1","0","0","",""
"null","","414276","HierDy3xgwra7w","f2oiftadk1","ms1000378","iti","","null","img/motor_3.png","68","motor","","","","","","",""
"443","","414731","HierDy3xgwra7w","f2oiftadk1","ms1000378","motor","","70","img/motor_4.png","70","motor","4","157","1","0","0","",""
"null","","414843","HierDy3xgwra7w","f2oiftadk1","ms1000378","iti","","null","img/motor_4.png","70","motor","","","","","","",""
"478","","415333","HierDy3xgwra7w","f2oiftadk1","ms1000378","motor","","76","img/motor_8.png","76","motor","8","158","1","0","0","",""
"null","","415445","HierDy3xgwra7w","f2oiftadk1","ms1000378","iti","","null","img/motor_8.png","76","motor","","","","","","",""
"714","","416171","HierDy3xgwra7w","f2oiftadk1","ms1000378","motor","","83","img/motor_2.png","83","motor","2","159","1","0","0","",""
"null","","416284","HierDy3xgwra7w","f2oiftadk1","ms1000378","iti","","null","img/motor_2.png","83","motor","","","","","","",""
"434","","416729","HierDy3xgwra7w","f2oiftadk1","ms1000378","motor","","70","img/motor_4.png","70","motor","4","160","1","0","0","",""
"null","","416842","HierDy3xgwra7w","f2oiftadk1","ms1000378","iti","","null","img/motor_4.png","70","motor","","","","","","",""
"633","","417485","HierDy3xgwra7w","f2oiftadk1","ms1000378","motor","","83","img/motor_2.png","83","motor","2","161","1","0","0","",""
"null","","417597","HierDy3xgwra7w","f2oiftadk1","ms1000378","iti","","null","img/motor_2.png","83","motor","","","","","","",""
"417","","418025","HierDy3xgwra7w","f2oiftadk1","ms1000378","motor","","83","img/motor_2.png","83","motor","2","162","1","0","0","",""
"null","","418138","HierDy3xgwra7w","f2oiftadk1","ms1000378","iti","","null","img/motor_2.png","83","motor","","","","","","",""
"488","","418637","HierDy3xgwra7w","f2oiftadk1","ms1000378","motor","","74","img/motor_6.png","74","motor","6","163","1","0","0","",""
"null","","418750","HierDy3xgwra7w","f2oiftadk1","ms1000378","iti","","null","img/motor_6.png","74","motor","","","","","","",""
"391","","419151","HierDy3xgwra7w","f2oiftadk1","ms1000378","motor","","76","img/motor_8.png","76","motor","8","164","1","0","0","",""
"null","","419265","HierDy3xgwra7w","f2oiftadk1","ms1000378","iti","","null","img/motor_8.png","76","motor","","","","","","",""
"460","","419736","HierDy3xgwra7w","f2oiftadk1","ms1000378","motor","","72","img/motor_5.png","72","motor","5","165","1","0","0","",""
"null","","419849","HierDy3xgwra7w","f2oiftadk1","ms1000378","iti","","null","img/motor_5.png","72","motor","","","","","","",""
"516","","420377","HierDy3xgwra7w","f2oiftadk1","ms1000378","motor","","72","img/motor_5.png","72","motor","5","166","1","0","0","",""
"null","","420489","HierDy3xgwra7w","f2oiftadk1","ms1000378","iti","","null","img/motor_5.png","72","motor","","","","","","",""
"444","","420944","HierDy3xgwra7w","f2oiftadk1","ms1000378","motor","","76","img/motor_8.png","76","motor","8","167","1","0","0","",""
"null","","421058","HierDy3xgwra7w","f2oiftadk1","ms1000378","iti","","null","img/motor_8.png","76","motor","","","","","","",""
"484","","421552","HierDy3xgwra7w","f2oiftadk1","ms1000378","motor","","72","img/motor_5.png","72","motor","5","168","1","0","0","",""
"null","","421664","HierDy3xgwra7w","f2oiftadk1","ms1000378","iti","","null","img/motor_5.png","72","motor","","","","","","",""
"422","","422098","HierDy3xgwra7w","f2oiftadk1","ms1000378","motor","","72","img/motor_5.png","72","motor","5","169","1","0","0","",""
"null","","422211","HierDy3xgwra7w","f2oiftadk1","ms1000378","iti","","null","img/motor_5.png","72","motor","","","","","","",""
"534","","422757","HierDy3xgwra7w","f2oiftadk1","ms1000378","motor","","65","img/motor_1.png","65","motor","1","170","1","0","0","",""
"null","","422870","HierDy3xgwra7w","f2oiftadk1","ms1000378","iti","","null","img/motor_1.png","65","motor","","","","","","",""
"818","","423698","HierDy3xgwra7w","f2oiftadk1","ms1000378","motor","","75","img/motor_7.png","75","motor","7","171","1","0","0","",""
"null","","423810","HierDy3xgwra7w","f2oiftadk1","ms1000378","iti","","null","img/motor_7.png","75","motor","","","","","","",""
"1001","","424824","HierDy3xgwra7w","f2oiftadk1","ms1000378","motor","","83","img/motor_2.png","83","motor","2","172","1","0","0","",""
"null","","424937","HierDy3xgwra7w","f2oiftadk1","ms1000378","iti","","null","img/motor_2.png","83","motor","","","","","","",""
"357","","425306","HierDy3xgwra7w","f2oiftadk1","ms1000378","motor","","68","img/motor_3.png","68","motor","3","173","1","0","0","",""
"null","","425418","HierDy3xgwra7w","f2oiftadk1","ms1000378","iti","","null","img/motor_3.png","68","motor","","","","","","",""
"402","","425833","HierDy3xgwra7w","f2oiftadk1","ms1000378","motor","","68","img/motor_3.png","68","motor","3","174","1","0","0","",""
"null","","425945","HierDy3xgwra7w","f2oiftadk1","ms1000378","iti","","null","img/motor_3.png","68","motor","","","","","","",""
"508","","426467","HierDy3xgwra7w","f2oiftadk1","ms1000378","motor","","76","img/motor_8.png","76","motor","8","175","1","0","0","",""
"null","","426578","HierDy3xgwra7w","f2oiftadk1","ms1000378","iti","","null","img/motor_8.png","76","motor","","","","","","",""
"483","","427073","HierDy3xgwra7w","f2oiftadk1","ms1000378","motor","","76","img/motor_8.png","76","motor","8","176","1","0","0","",""
"null","","427185","HierDy3xgwra7w","f2oiftadk1","ms1000378","iti","","null","img/motor_8.png","76","motor","","","","","","",""
"549","","427747","HierDy3xgwra7w","f2oiftadk1","ms1000378","motor","","75","img/motor_7.png","75","motor","7","177","1","0","0","",""
"null","","427858","HierDy3xgwra7w","f2oiftadk1","ms1000378","iti","","null","img/motor_7.png","75","motor","","","","","","",""
"723","","428593","HierDy3xgwra7w","f2oiftadk1","ms1000378","motor","","70","img/motor_4.png","70","motor","4","178","1","0","0","",""
"null","","428706","HierDy3xgwra7w","f2oiftadk1","ms1000378","iti","","null","img/motor_4.png","70","motor","","","","","","",""
"620","","429338","HierDy3xgwra7w","f2oiftadk1","ms1000378","motor","","76","img/motor_8.png","76","motor","8","179","1","0","0","",""
"null","","429451","HierDy3xgwra7w","f2oiftadk1","ms1000378","iti","","null","img/motor_8.png","76","motor","","","","","","",""
"646","","430109","HierDy3xgwra7w","f2oiftadk1","ms1000378","motor","","68","img/motor_3.png","68","motor","3","180","1","0","0","",""
"null","","430222","HierDy3xgwra7w","f2oiftadk1","ms1000378","iti","","null","img/motor_3.png","68","motor","","","","","","",""
"685","","430918","HierDy3xgwra7w","f2oiftadk1","ms1000378","motor","","75","img/motor_7.png","75","motor","7","181","1","0","0","",""
"null","","431031","HierDy3xgwra7w","f2oiftadk1","ms1000378","iti","","null","img/motor_7.png","75","motor","","","","","","",""
"929","","431972","HierDy3xgwra7w","f2oiftadk1","ms1000378","motor","","72","img/motor_5.png","72","motor","5","182","1","0","0","",""
"null","","432085","HierDy3xgwra7w","f2oiftadk1","ms1000378","iti","","null","img/motor_5.png","72","motor","","","","","","",""
"422","","432519","HierDy3xgwra7w","f2oiftadk1","ms1000378","motor","","72","img/motor_5.png","72","motor","5","183","1","0","0","",""
"null","","432631","HierDy3xgwra7w","f2oiftadk1","ms1000378","iti","","null","img/motor_5.png","72","motor","","","","","","",""
"550","","433191","HierDy3xgwra7w","f2oiftadk1","ms1000378","motor","","65","img/motor_1.png","65","motor","1","184","1","0","0","",""
"null","","433305","HierDy3xgwra7w","f2oiftadk1","ms1000378","iti","","null","img/motor_1.png","65","motor","","","","","","",""
"564","","433880","HierDy3xgwra7w","f2oiftadk1","ms1000378","motor","","75","img/motor_7.png","75","motor","7","185","1","0","0","",""
"null","","433993","HierDy3xgwra7w","f2oiftadk1","ms1000378","iti","","null","img/motor_7.png","75","motor","","","","","","",""
"672","","434677","HierDy3xgwra7w","f2oiftadk1","ms1000378","motor","","68","img/motor_3.png","68","motor","3","186","1","0","0","",""
"null","","434789","HierDy3xgwra7w","f2oiftadk1","ms1000378","iti","","null","img/motor_3.png","68","motor","","","","","","",""
"609","","435409","HierDy3xgwra7w","f2oiftadk1","ms1000378","motor","","76","img/motor_8.png","76","motor","8","187","1","0","0","",""
"null","","435522","HierDy3xgwra7w","f2oiftadk1","ms1000378","iti","","null","img/motor_8.png","76","motor","","","","","","",""
"789","","436323","HierDy3xgwra7w","f2oiftadk1","ms1000378","motor","","70","img/motor_4.png","70","motor","4","188","1","0","0","",""
"null","","436435","HierDy3xgwra7w","f2oiftadk1","ms1000378","iti","","null","img/motor_4.png","70","motor","","","","","","",""
"574","","437021","HierDy3xgwra7w","f2oiftadk1","ms1000378","motor","","75","img/motor_7.png","75","motor","7","189","1","0","0","",""
"null","","437133","HierDy3xgwra7w","f2oiftadk1","ms1000378","iti","","null","img/motor_7.png","75","motor","","","","","","",""
"640","","437785","HierDy3xgwra7w","f2oiftadk1","ms1000378","motor","","83","img/motor_2.png","83","motor","2","190","1","0","0","",""
"null","","437896","HierDy3xgwra7w","f2oiftadk1","ms1000378","iti","","null","img/motor_2.png","83","motor","","","","","","",""
"488","","438398","HierDy3xgwra7w","f2oiftadk1","ms1000378","motor","","76","img/motor_8.png","76","motor","8","191","1","0","0","",""
"null","","438510","HierDy3xgwra7w","f2oiftadk1","ms1000378","iti","","null","img/motor_8.png","76","motor","","","","","","",""
"567","","439088","HierDy3xgwra7w","f2oiftadk1","ms1000378","motor","","70","img/motor_4.png","70","motor","4","192","1","0","0","",""
"null","","439200","HierDy3xgwra7w","f2oiftadk1","ms1000378","iti","","null","img/motor_4.png","70","motor","","","","","","",""
"495","","439707","HierDy3xgwra7w","f2oiftadk1","ms1000378","motor","","83","img/motor_3.png","68","motor","3","193","0","1","0","",""
"396","","440114","HierDy3xgwra7w","f2oiftadk1","ms1000378","motorRepeat","","68","img/motor_3.png","68","motor","3","193","1","0","0","",""
"null","","440227","HierDy3xgwra7w","f2oiftadk1","ms1000378","iti","","null","img/motor_3.png","68","motor","","","","","","",""
"536","","440775","HierDy3xgwra7w","f2oiftadk1","ms1000378","motor","","75","img/motor_7.png","75","motor","7","194","1","0","0","",""
"null","","440891","HierDy3xgwra7w","f2oiftadk1","ms1000378","iti","","null","img/motor_7.png","75","motor","","","","","","",""
"659","","441561","HierDy3xgwra7w","f2oiftadk1","ms1000378","motor","","83","img/motor_2.png","83","motor","2","195","1","0","0","",""
"null","","441673","HierDy3xgwra7w","f2oiftadk1","ms1000378","iti","","null","img/motor_2.png","83","motor","","","","","","",""
"398","","442084","HierDy3xgwra7w","f2oiftadk1","ms1000378","motor","","65","img/motor_1.png","65","motor","1","196","1","0","0","",""
"null","","442198","HierDy3xgwra7w","f2oiftadk1","ms1000378","iti","","null","img/motor_1.png","65","motor","","","","","","",""
"608","","442817","HierDy3xgwra7w","f2oiftadk1","ms1000378","motor","","75","img/motor_7.png","75","motor","7","197","1","0","0","",""
"null","","442930","HierDy3xgwra7w","f2oiftadk1","ms1000378","iti","","null","img/motor_7.png","75","motor","","","","","","",""
"439","","443380","HierDy3xgwra7w","f2oiftadk1","ms1000378","motor","","72","img/motor_5.png","72","motor","5","198","1","0","0","",""
"null","","443494","HierDy3xgwra7w","f2oiftadk1","ms1000378","iti","","null","img/motor_5.png","72","motor","","","","","","",""
"584","","444089","HierDy3xgwra7w","f2oiftadk1","ms1000378","motor","","83","img/motor_2.png","83","motor","2","199","1","0","0","",""
"null","","444201","HierDy3xgwra7w","f2oiftadk1","ms1000378","iti","","null","img/motor_2.png","83","motor","","","","","","",""
"452","","444664","HierDy3xgwra7w","f2oiftadk1","ms1000378","motor","","76","img/motor_8.png","76","motor","8","200","1","0","0","",""
"null","","444776","HierDy3xgwra7w","f2oiftadk1","ms1000378","iti","","null","img/motor_8.png","76","motor","","","","","","",""
"423","","445212","HierDy3xgwra7w","f2oiftadk1","ms1000378","motor","","74","img/motor_6.png","74","motor","6","201","1","0","0","",""
"null","","445325","HierDy3xgwra7w","f2oiftadk1","ms1000378","iti","","null","img/motor_6.png","74","motor","","","","","","",""
"558","","445894","HierDy3xgwra7w","f2oiftadk1","ms1000378","motor","","76","img/motor_8.png","76","motor","8","202","1","0","0","",""
"null","","446005","HierDy3xgwra7w","f2oiftadk1","ms1000378","iti","","null","img/motor_8.png","76","motor","","","","","","",""
"529","","446547","HierDy3xgwra7w","f2oiftadk1","ms1000378","motor","","76","img/motor_8.png","76","motor","8","203","1","0","0","",""
"null","","446660","HierDy3xgwra7w","f2oiftadk1","ms1000378","iti","","null","img/motor_8.png","76","motor","","","","","","",""
"589","","447260","HierDy3xgwra7w","f2oiftadk1","ms1000378","motor","","68","img/motor_3.png","68","motor","3","204","1","0","0","",""
"null","","447373","HierDy3xgwra7w","f2oiftadk1","ms1000378","iti","","null","img/motor_3.png","68","motor","","","","","","",""
"456","","447841","HierDy3xgwra7w","f2oiftadk1","ms1000378","motor","","76","img/motor_8.png","76","motor","8","205","1","0","0","",""
"null","","447955","HierDy3xgwra7w","f2oiftadk1","ms1000378","iti","","null","img/motor_8.png","76","motor","","","","","","",""
"540","","448506","HierDy3xgwra7w","f2oiftadk1","ms1000378","motor","","70","img/motor_4.png","70","motor","4","206","1","0","0","",""
"null","","448618","HierDy3xgwra7w","f2oiftadk1","ms1000378","iti","","null","img/motor_4.png","70","motor","","","","","","",""
"405","","449036","HierDy3xgwra7w","f2oiftadk1","ms1000378","motor","","65","img/motor_1.png","65","motor","1","207","1","0","0","",""
"null","","449148","HierDy3xgwra7w","f2oiftadk1","ms1000378","iti","","null","img/motor_1.png","65","motor","","","","","","",""
"480","","449641","HierDy3xgwra7w","f2oiftadk1","ms1000378","motor","","76","img/motor_8.png","76","motor","8","208","1","0","0","",""
"null","","449751","HierDy3xgwra7w","f2oiftadk1","ms1000378","iti","","null","img/motor_8.png","76","motor","","","","","","",""
"438","","450200","HierDy3xgwra7w","f2oiftadk1","ms1000378","motor","","72","img/motor_5.png","72","motor","5","209","1","0","0","",""
"null","","450313","HierDy3xgwra7w","f2oiftadk1","ms1000378","iti","","null","img/motor_5.png","72","motor","","","","","","",""
"487","","450812","HierDy3xgwra7w","f2oiftadk1","ms1000378","motor","","65","img/motor_1.png","65","motor","1","210","1","0","0","",""
"null","","450926","HierDy3xgwra7w","f2oiftadk1","ms1000378","iti","","null","img/motor_1.png","65","motor","","","","","","",""
"487","","451423","HierDy3xgwra7w","f2oiftadk1","ms1000378","motor","","65","img/motor_1.png","65","motor","1","211","1","0","0","",""
"null","","451537","HierDy3xgwra7w","f2oiftadk1","ms1000378","iti","","null","img/motor_1.png","65","motor","","","","","","",""
"549","","452098","HierDy3xgwra7w","f2oiftadk1","ms1000378","motor","","75","img/motor_7.png","75","motor","7","212","1","0","0","",""
"null","","452210","HierDy3xgwra7w","f2oiftadk1","ms1000378","iti","","null","img/motor_7.png","75","motor","","","","","","",""
"630","","452851","HierDy3xgwra7w","f2oiftadk1","ms1000378","motor","","75","img/motor_7.png","75","motor","7","213","1","0","0","",""
"null","","452964","HierDy3xgwra7w","f2oiftadk1","ms1000378","iti","","null","img/motor_7.png","75","motor","","","","","","",""
"442","","453419","HierDy3xgwra7w","f2oiftadk1","ms1000378","motor","","72","img/motor_5.png","72","motor","5","214","1","0","0","",""
"null","","453531","HierDy3xgwra7w","f2oiftadk1","ms1000378","iti","","null","img/motor_5.png","72","motor","","","","","","",""
"407","","453950","HierDy3xgwra7w","f2oiftadk1","ms1000378","motor","","75","img/motor_7.png","75","motor","7","215","1","0","0","",""
"null","","454062","HierDy3xgwra7w","f2oiftadk1","ms1000378","iti","","null","img/motor_7.png","75","motor","","","","","","",""
"576","","454652","HierDy3xgwra7w","f2oiftadk1","ms1000378","motor","","83","img/motor_2.png","83","motor","2","216","1","0","0","",""
"null","","454765","HierDy3xgwra7w","f2oiftadk1","ms1000378","iti","","null","img/motor_2.png","83","motor","","","","","","",""
"434","","455212","HierDy3xgwra7w","f2oiftadk1","ms1000378","motor","","72","img/motor_5.png","72","motor","5","217","1","0","0","",""
"null","","455324","HierDy3xgwra7w","f2oiftadk1","ms1000378","iti","","null","img/motor_5.png","72","motor","","","","","","",""
"404","","455740","HierDy3xgwra7w","f2oiftadk1","ms1000378","motor","","75","img/motor_7.png","75","motor","7","218","1","0","0","",""
"null","","455854","HierDy3xgwra7w","f2oiftadk1","ms1000378","iti","","null","img/motor_7.png","75","motor","","","","","","",""
"448","","456314","HierDy3xgwra7w","f2oiftadk1","ms1000378","motor","","75","img/motor_7.png","75","motor","7","219","1","0","0","",""
"null","","456427","HierDy3xgwra7w","f2oiftadk1","ms1000378","iti","","null","img/motor_7.png","75","motor","","","","","","",""
"579","","457018","HierDy3xgwra7w","f2oiftadk1","ms1000378","motor","","70","img/motor_3.png","68","motor","3","220","0","1","0","",""
"420","","457449","HierDy3xgwra7w","f2oiftadk1","ms1000378","motorRepeat","","68","img/motor_3.png","68","motor","3","220","1","0","0","",""
"null","","457563","HierDy3xgwra7w","f2oiftadk1","ms1000378","iti","","null","img/motor_3.png","68","motor","","","","","","",""
"475","","458050","HierDy3xgwra7w","f2oiftadk1","ms1000378","motor","","72","img/motor_5.png","72","motor","5","221","1","0","0","",""
"null","","458164","HierDy3xgwra7w","f2oiftadk1","ms1000378","iti","","null","img/motor_5.png","72","motor","","","","","","",""
"528","","458706","HierDy3xgwra7w","f2oiftadk1","ms1000378","motor","","83","img/motor_2.png","83","motor","2","222","1","0","0","",""
"null","","458819","HierDy3xgwra7w","f2oiftadk1","ms1000378","iti","","null","img/motor_2.png","83","motor","","","","","","",""
"830","","459662","HierDy3xgwra7w","f2oiftadk1","ms1000378","motor","","83","img/motor_2.png","83","motor","2","223","1","0","0","",""
"null","","459774","HierDy3xgwra7w","f2oiftadk1","ms1000378","iti","","null","img/motor_2.png","83","motor","","","","","","",""
"625","","460412","HierDy3xgwra7w","f2oiftadk1","ms1000378","motor","","72","img/motor_5.png","72","motor","5","224","1","0","0","",""
"null","","460526","HierDy3xgwra7w","f2oiftadk1","ms1000378","iti","","null","img/motor_5.png","72","motor","","","","","","",""
"419","","460959","HierDy3xgwra7w","f2oiftadk1","ms1000378","motor","","72","img/motor_5.png","72","motor","5","225","1","0","0","",""
"null","","461071","HierDy3xgwra7w","f2oiftadk1","ms1000378","iti","","null","img/motor_5.png","72","motor","","","","","","",""
"579","","461663","HierDy3xgwra7w","f2oiftadk1","ms1000378","motor","","70","img/motor_4.png","70","motor","4","226","1","0","0","",""
"null","","461776","HierDy3xgwra7w","f2oiftadk1","ms1000378","iti","","null","img/motor_4.png","70","motor","","","","","","",""
"411","","462198","HierDy3xgwra7w","f2oiftadk1","ms1000378","motor","","75","img/motor_7.png","75","motor","7","227","1","0","0","",""
"null","","462310","HierDy3xgwra7w","f2oiftadk1","ms1000378","iti","","null","img/motor_7.png","75","motor","","","","","","",""
"462","","462784","HierDy3xgwra7w","f2oiftadk1","ms1000378","motor","","72","img/motor_5.png","72","motor","5","228","1","0","0","",""
"null","","462898","HierDy3xgwra7w","f2oiftadk1","ms1000378","iti","","null","img/motor_5.png","72","motor","","","","","","",""
"442","","463352","HierDy3xgwra7w","f2oiftadk1","ms1000378","motor","","72","img/motor_5.png","72","motor","5","229","1","0","0","",""
"null","","463465","HierDy3xgwra7w","f2oiftadk1","ms1000378","iti","","null","img/motor_5.png","72","motor","","","","","","",""
"462","","463939","HierDy3xgwra7w","f2oiftadk1","ms1000378","motor","","74","img/motor_6.png","74","motor","6","230","1","0","0","",""
"null","","464052","HierDy3xgwra7w","f2oiftadk1","ms1000378","iti","","null","img/motor_6.png","74","motor","","","","","","",""
"548","","464612","HierDy3xgwra7w","f2oiftadk1","ms1000378","motor","","70","img/motor_4.png","70","motor","4","231","1","0","0","",""
"null","","464725","HierDy3xgwra7w","f2oiftadk1","ms1000378","iti","","null","img/motor_4.png","70","motor","","","","","","",""
"715","","465450","HierDy3xgwra7w","f2oiftadk1","ms1000378","motor","","76","img/motor_8.png","76","motor","8","232","1","0","0","",""
"null","","465564","HierDy3xgwra7w","f2oiftadk1","ms1000378","iti","","null","img/motor_8.png","76","motor","","","","","","",""
"452","","466027","HierDy3xgwra7w","f2oiftadk1","ms1000378","motor","","76","img/motor_8.png","76","motor","8","233","1","0","0","",""
"null","","466140","HierDy3xgwra7w","f2oiftadk1","ms1000378","iti","","null","img/motor_8.png","76","motor","","","","","","",""
"467","","466619","HierDy3xgwra7w","f2oiftadk1","ms1000378","motor","","75","img/motor_6.png","74","motor","6","234","0","1","0","",""
"426","","467057","HierDy3xgwra7w","f2oiftadk1","ms1000378","motorRepeat","","74","img/motor_6.png","74","motor","6","234","1","0","0","",""
"null","","467169","HierDy3xgwra7w","f2oiftadk1","ms1000378","iti","","null","img/motor_6.png","74","motor","","","","","","",""
"513","","467697","HierDy3xgwra7w","f2oiftadk1","ms1000378","motor","","70","img/motor_4.png","70","motor","4","235","1","0","0","",""
"null","","467810","HierDy3xgwra7w","f2oiftadk1","ms1000378","iti","","null","img/motor_4.png","70","motor","","","","","","",""
"409","","468230","HierDy3xgwra7w","f2oiftadk1","ms1000378","motor","","76","img/motor_8.png","76","motor","8","236","1","0","0","",""
"null","","468343","HierDy3xgwra7w","f2oiftadk1","ms1000378","iti","","null","img/motor_8.png","76","motor","","","","","","",""
"633","","468989","HierDy3xgwra7w","f2oiftadk1","ms1000378","motor","","70","img/motor_4.png","70","motor","4","237","1","0","0","",""
"null","","469101","HierDy3xgwra7w","f2oiftadk1","ms1000378","iti","","null","img/motor_4.png","70","motor","","","","","","",""
"1033","","470147","HierDy3xgwra7w","f2oiftadk1","ms1000378","motor","","83","img/motor_2.png","83","motor","2","238","1","0","0","",""
"null","","470260","HierDy3xgwra7w","f2oiftadk1","ms1000378","iti","","null","img/motor_2.png","83","motor","","","","","","",""
"451","","470722","HierDy3xgwra7w","f2oiftadk1","ms1000378","motor","","70","img/motor_4.png","70","motor","4","239","1","0","0","",""
"null","","470834","HierDy3xgwra7w","f2oiftadk1","ms1000378","iti","","null","img/motor_4.png","70","motor","","","","","","",""
"621","","471468","HierDy3xgwra7w","f2oiftadk1","ms1000378","motor","","75","img/motor_7.png","75","motor","7","240","1","0","0","",""
"null","","471580","HierDy3xgwra7w","f2oiftadk1","ms1000378","iti","","null","img/motor_7.png","75","motor","","","","","","",""
"438","","472030","HierDy3xgwra7w","f2oiftadk1","ms1000378","motor","","74","img/motor_6.png","74","motor","6","241","1","0","0","",""
"null","","472143","HierDy3xgwra7w","f2oiftadk1","ms1000378","iti","","null","img/motor_6.png","74","motor","","","","","","",""
"366","","472522","HierDy3xgwra7w","f2oiftadk1","ms1000378","motor","","75","img/motor_7.png","75","motor","7","242","1","0","0","",""
"null","","472635","HierDy3xgwra7w","f2oiftadk1","ms1000378","iti","","null","img/motor_7.png","75","motor","","","","","","",""
"552","","473199","HierDy3xgwra7w","f2oiftadk1","ms1000378","motor","","83","img/motor_2.png","83","motor","2","243","1","0","0","",""
"null","","473313","HierDy3xgwra7w","f2oiftadk1","ms1000378","iti","","null","img/motor_2.png","83","motor","","","","","","",""
"548","","473872","HierDy3xgwra7w","f2oiftadk1","ms1000378","motor","","75","img/motor_7.png","75","motor","7","244","1","0","0","",""
"null","","473984","HierDy3xgwra7w","f2oiftadk1","ms1000378","iti","","null","img/motor_7.png","75","motor","","","","","","",""
"659","","474655","HierDy3xgwra7w","f2oiftadk1","ms1000378","motor","","72","img/motor_5.png","72","motor","5","245","1","0","0","",""
"null","","474769","HierDy3xgwra7w","f2oiftadk1","ms1000378","iti","","null","img/motor_5.png","72","motor","","","","","","",""
"497","","475277","HierDy3xgwra7w","f2oiftadk1","ms1000378","motor","","70","img/motor_4.png","70","motor","4","246","1","0","0","",""
"null","","475390","HierDy3xgwra7w","f2oiftadk1","ms1000378","iti","","null","img/motor_4.png","70","motor","","","","","","",""
"464","","475866","HierDy3xgwra7w","f2oiftadk1","ms1000378","motor","","72","img/motor_5.png","72","motor","5","247","1","0","0","",""
"null","","475979","HierDy3xgwra7w","f2oiftadk1","ms1000378","iti","","null","img/motor_5.png","72","motor","","","","","","",""
"1024","","477014","HierDy3xgwra7w","f2oiftadk1","ms1000378","motor","","83","img/motor_2.png","83","motor","2","248","1","0","0","",""
"null","","477127","HierDy3xgwra7w","f2oiftadk1","ms1000378","iti","","null","img/motor_2.png","83","motor","","","","","","",""
"382","","477521","HierDy3xgwra7w","f2oiftadk1","ms1000378","motor","","75","img/motor_7.png","75","motor","7","249","1","0","0","",""
"null","","477634","HierDy3xgwra7w","f2oiftadk1","ms1000378","iti","","null","img/motor_7.png","75","motor","","","","","","",""
"669","","478315","HierDy3xgwra7w","f2oiftadk1","ms1000378","motor","","68","img/motor_3.png","68","motor","3","250","1","0","0","",""
"null","","478428","HierDy3xgwra7w","f2oiftadk1","ms1000378","iti","","null","img/motor_3.png","68","motor","","","","","","",""
"496","","478936","HierDy3xgwra7w","f2oiftadk1","ms1000378","motor","","65","img/motor_1.png","65","motor","1","251","1","0","0","",""
"null","","479049","HierDy3xgwra7w","f2oiftadk1","ms1000378","iti","","null","img/motor_1.png","65","motor","","","","","","",""
"696","","479757","HierDy3xgwra7w","f2oiftadk1","ms1000378","motor","","83","img/motor_2.png","83","motor","2","252","1","0","0","",""
"null","","479869","HierDy3xgwra7w","f2oiftadk1","ms1000378","iti","","null","img/motor_2.png","83","motor","","","","","","",""
"540","","480422","HierDy3xgwra7w","f2oiftadk1","ms1000378","motor","","70","img/motor_4.png","70","motor","4","253","1","0","0","",""
"null","","480534","HierDy3xgwra7w","f2oiftadk1","ms1000378","iti","","null","img/motor_4.png","70","motor","","","","","","",""
"599","","481146","HierDy3xgwra7w","f2oiftadk1","ms1000378","motor","","70","img/motor_4.png","70","motor","4","254","1","0","0","",""
"null","","481258","HierDy3xgwra7w","f2oiftadk1","ms1000378","iti","","null","img/motor_4.png","70","motor","","","","","","",""
"662","","481932","HierDy3xgwra7w","f2oiftadk1","ms1000378","motor","","83","img/motor_2.png","83","motor","2","255","1","0","0","",""
"null","","482045","HierDy3xgwra7w","f2oiftadk1","ms1000378","iti","","null","img/motor_2.png","83","motor","","","","","","",""
"568","","482625","HierDy3xgwra7w","f2oiftadk1","ms1000378","motor","","75","img/motor_7.png","75","motor","7","256","1","0","0","",""
"null","","482738","HierDy3xgwra7w","f2oiftadk1","ms1000378","iti","","null","img/motor_7.png","75","motor","","","","","","",""
"689","","483438","HierDy3xgwra7w","f2oiftadk1","ms1000378","motor","","68","img/motor_3.png","68","motor","3","257","1","0","0","",""
"null","","483551","HierDy3xgwra7w","f2oiftadk1","ms1000378","iti","","null","img/motor_3.png","68","motor","","","","","","",""
"453","","484016","HierDy3xgwra7w","f2oiftadk1","ms1000378","motor","","72","img/motor_5.png","72","motor","5","258","1","0","0","",""
"null","","484129","HierDy3xgwra7w","f2oiftadk1","ms1000378","iti","","null","img/motor_5.png","72","motor","","","","","","",""
"498","","484638","HierDy3xgwra7w","f2oiftadk1","ms1000378","motor","","70","img/motor_4.png","70","motor","4","259","1","0","0","",""
"null","","484751","HierDy3xgwra7w","f2oiftadk1","ms1000378","iti","","null","img/motor_4.png","70","motor","","","","","","",""
"532","","485294","HierDy3xgwra7w","f2oiftadk1","ms1000378","motor","","68","img/motor_3.png","68","motor","3","260","1","0","0","",""
"null","","485407","HierDy3xgwra7w","f2oiftadk1","ms1000378","iti","","null","img/motor_3.png","68","motor","","","","","","",""
"504","","485924","HierDy3xgwra7w","f2oiftadk1","ms1000378","motor","","75","img/motor_7.png","75","motor","7","261","1","0","0","",""
"null","","486036","HierDy3xgwra7w","f2oiftadk1","ms1000378","iti","","null","img/motor_7.png","75","motor","","","","","","",""
"473","","486521","HierDy3xgwra7w","f2oiftadk1","ms1000378","motor","","65","img/motor_1.png","65","motor","1","262","1","0","0","",""
"null","","486635","HierDy3xgwra7w","f2oiftadk1","ms1000378","iti","","null","img/motor_1.png","65","motor","","","","","","",""
"374","","487020","HierDy3xgwra7w","f2oiftadk1","ms1000378","motor","","76","img/motor_8.png","76","motor","8","263","1","0","0","",""
"null","","487133","HierDy3xgwra7w","f2oiftadk1","ms1000378","iti","","null","img/motor_8.png","76","motor","","","","","","",""
"705","","487850","HierDy3xgwra7w","f2oiftadk1","ms1000378","motor","","68","img/motor_3.png","68","motor","3","264","1","0","0","",""
"null","","487965","HierDy3xgwra7w","f2oiftadk1","ms1000378","iti","","null","img/motor_3.png","68","motor","","","","","","",""
"549","","488524","HierDy3xgwra7w","f2oiftadk1","ms1000378","motor","","75","img/motor_7.png","75","motor","7","265","1","0","0","",""
"null","","488637","HierDy3xgwra7w","f2oiftadk1","ms1000378","iti","","null","img/motor_7.png","75","motor","","","","","","",""
"421","","489071","HierDy3xgwra7w","f2oiftadk1","ms1000378","motor","","75","img/motor_7.png","75","motor","7","266","1","0","0","",""
"null","","489184","HierDy3xgwra7w","f2oiftadk1","ms1000378","iti","","null","img/motor_7.png","75","motor","","","","","","",""
"462","","489658","HierDy3xgwra7w","f2oiftadk1","ms1000378","motor","","70","img/motor_4.png","70","motor","4","267","1","0","0","",""
"null","","489770","HierDy3xgwra7w","f2oiftadk1","ms1000378","iti","","null","img/motor_4.png","70","motor","","","","","","",""
"432","","490215","HierDy3xgwra7w","f2oiftadk1","ms1000378","motor","","74","img/motor_6.png","74","motor","6","268","1","0","0","",""
"null","","490328","HierDy3xgwra7w","f2oiftadk1","ms1000378","iti","","null","img/motor_6.png","74","motor","","","","","","",""
"486","","490827","HierDy3xgwra7w","f2oiftadk1","ms1000378","motor","","65","img/motor_1.png","65","motor","1","269","1","0","0","",""
"null","","490940","HierDy3xgwra7w","f2oiftadk1","ms1000378","iti","","null","img/motor_1.png","65","motor","","","","","","",""
"740","","491692","HierDy3xgwra7w","f2oiftadk1","ms1000378","motor","","83","img/motor_2.png","83","motor","2","270","1","0","0","",""
"null","","491805","HierDy3xgwra7w","f2oiftadk1","ms1000378","iti","","null","img/motor_2.png","83","motor","","","","","","",""
"527","","492344","HierDy3xgwra7w","f2oiftadk1","ms1000378","motor","","75","img/motor_7.png","75","motor","7","271","1","0","0","",""
"null","","492458","HierDy3xgwra7w","f2oiftadk1","ms1000378","iti","","null","img/motor_7.png","75","motor","","","","","","",""
"536","","493006","HierDy3xgwra7w","f2oiftadk1","ms1000378","motor","","68","img/motor_3.png","68","motor","3","272","1","0","0","",""
"null","","493119","HierDy3xgwra7w","f2oiftadk1","ms1000378","iti","","null","img/motor_3.png","68","motor","","","","","","",""
"500","","493631","HierDy3xgwra7w","f2oiftadk1","ms1000378","motor","","83","img/motor_2.png","83","motor","2","273","1","0","0","",""
"null","","493744","HierDy3xgwra7w","f2oiftadk1","ms1000378","iti","","null","img/motor_2.png","83","motor","","","","","","",""
"681","","494438","HierDy3xgwra7w","f2oiftadk1","ms1000378","motor","","74","img/motor_6.png","74","motor","6","274","1","0","0","",""
"null","","494550","HierDy3xgwra7w","f2oiftadk1","ms1000378","iti","","null","img/motor_6.png","74","motor","","","","","","",""
"448","","495009","HierDy3xgwra7w","f2oiftadk1","ms1000378","motor","","70","img/motor_4.png","70","motor","4","275","1","0","0","",""
"null","","495122","HierDy3xgwra7w","f2oiftadk1","ms1000378","iti","","null","img/motor_4.png","70","motor","","","","","","",""
"699","","495833","HierDy3xgwra7w","f2oiftadk1","ms1000378","motor","","83","img/motor_2.png","83","motor","2","276","1","0","0","",""
"null","","495946","HierDy3xgwra7w","f2oiftadk1","ms1000378","iti","","null","img/motor_2.png","83","motor","","","","","","",""
"523","","496481","HierDy3xgwra7w","f2oiftadk1","ms1000378","motor","","75","img/motor_7.png","75","motor","7","277","1","0","0","",""
"null","","496594","HierDy3xgwra7w","f2oiftadk1","ms1000378","iti","","null","img/motor_7.png","75","motor","","","","","","",""
"492","","497097","HierDy3xgwra7w","f2oiftadk1","ms1000378","motor","","65","img/motor_1.png","65","motor","1","278","1","0","0","",""
"null","","497210","HierDy3xgwra7w","f2oiftadk1","ms1000378","iti","","null","img/motor_1.png","65","motor","","","","","","",""
"518","","497740","HierDy3xgwra7w","f2oiftadk1","ms1000378","motor","","70","img/motor_4.png","70","motor","4","279","1","0","0","",""
"null","","497853","HierDy3xgwra7w","f2oiftadk1","ms1000378","iti","","null","img/motor_4.png","70","motor","","","","","","",""
"548","","498412","HierDy3xgwra7w","f2oiftadk1","ms1000378","motor","","74","img/motor_6.png","74","motor","6","280","1","0","0","",""
"null","","498525","HierDy3xgwra7w","f2oiftadk1","ms1000378","iti","","null","img/motor_6.png","74","motor","","","","","","",""
"669","","499206","HierDy3xgwra7w","f2oiftadk1","ms1000378","motor","","68","img/motor_3.png","68","motor","3","281","1","0","0","",""
"null","","499318","HierDy3xgwra7w","f2oiftadk1","ms1000378","iti","","null","img/motor_3.png","68","motor","","","","","","",""
"446","","499774","HierDy3xgwra7w","f2oiftadk1","ms1000378","motor","","76","img/motor_8.png","76","motor","8","282","1","0","0","",""
"null","","499888","HierDy3xgwra7w","f2oiftadk1","ms1000378","iti","","null","img/motor_8.png","76","motor","","","","","","",""
"560","","500460","HierDy3xgwra7w","f2oiftadk1","ms1000378","motor","","74","img/motor_6.png","74","motor","6","283","1","0","0","",""
"null","","500573","HierDy3xgwra7w","f2oiftadk1","ms1000378","iti","","null","img/motor_6.png","74","motor","","","","","","",""
"702","","501287","HierDy3xgwra7w","f2oiftadk1","ms1000378","motor","","83","img/motor_2.png","83","motor","2","284","1","0","0","",""
"null","","501401","HierDy3xgwra7w","f2oiftadk1","ms1000378","iti","","null","img/motor_2.png","83","motor","","","","","","",""
"397","","501809","HierDy3xgwra7w","f2oiftadk1","ms1000378","motor","","68","img/motor_3.png","68","motor","3","285","1","0","0","",""
"null","","501923","HierDy3xgwra7w","f2oiftadk1","ms1000378","iti","","null","img/motor_3.png","68","motor","","","","","","",""
"462","","502397","HierDy3xgwra7w","f2oiftadk1","ms1000378","motor","","83","img/motor_2.png","83","motor","2","286","1","0","0","",""
"null","","502509","HierDy3xgwra7w","f2oiftadk1","ms1000378","iti","","null","img/motor_2.png","83","motor","","","","","","",""
"524","","503045","HierDy3xgwra7w","f2oiftadk1","ms1000378","motor","","75","img/motor_6.png","74","motor","6","287","0","1","0","",""
"346","","503403","HierDy3xgwra7w","f2oiftadk1","ms1000378","motorRepeat","","74","img/motor_6.png","74","motor","6","287","1","0","0","",""
"null","","503517","HierDy3xgwra7w","f2oiftadk1","ms1000378","iti","","null","img/motor_6.png","74","motor","","","","","","",""
"480","","504009","HierDy3xgwra7w","f2oiftadk1","ms1000378","motor","","83","img/motor_2.png","83","motor","2","288","1","0","0","",""
"null","","504122","HierDy3xgwra7w","f2oiftadk1","ms1000378","iti","","null","img/motor_2.png","83","motor","","","","","","",""
"657","","504789","HierDy3xgwra7w","f2oiftadk1","ms1000378","motor","","74","img/motor_6.png","74","motor","6","289","1","0","0","",""
"null","","504902","HierDy3xgwra7w","f2oiftadk1","ms1000378","iti","","null","img/motor_6.png","74","motor","","","","","","",""
"886","","505801","HierDy3xgwra7w","f2oiftadk1","ms1000378","motor","","74","img/motor_6.png","74","motor","6","290","1","0","0","",""
"null","","505914","HierDy3xgwra7w","f2oiftadk1","ms1000378","iti","","null","img/motor_6.png","74","motor","","","","","","",""
"687","","506613","HierDy3xgwra7w","f2oiftadk1","ms1000378","motor","","68","img/motor_3.png","68","motor","3","291","1","0","0","",""
"null","","506726","HierDy3xgwra7w","f2oiftadk1","ms1000378","iti","","null","img/motor_3.png","68","motor","","","","","","",""
"410","","507147","HierDy3xgwra7w","f2oiftadk1","ms1000378","motor","","74","img/motor_6.png","74","motor","6","292","1","0","0","",""
"null","","507261","HierDy3xgwra7w","f2oiftadk1","ms1000378","iti","","null","img/motor_6.png","74","motor","","","","","","",""
"491","","507764","HierDy3xgwra7w","f2oiftadk1","ms1000378","motor","","75","img/motor_7.png","75","motor","7","293","1","0","0","",""
"null","","507877","HierDy3xgwra7w","f2oiftadk1","ms1000378","iti","","null","img/motor_7.png","75","motor","","","","","","",""
"521","","508411","HierDy3xgwra7w","f2oiftadk1","ms1000378","motor","","83","img/motor_2.png","83","motor","2","294","1","0","0","",""
"null","","508523","HierDy3xgwra7w","f2oiftadk1","ms1000378","iti","","null","img/motor_2.png","83","motor","","","","","","",""
"513","","509048","HierDy3xgwra7w","f2oiftadk1","ms1000378","motor","","76","img/motor_8.png","76","motor","8","295","1","0","0","",""
"null","","509161","HierDy3xgwra7w","f2oiftadk1","ms1000378","iti","","null","img/motor_8.png","76","motor","","","","","","",""
"564","","509737","HierDy3xgwra7w","f2oiftadk1","ms1000378","motor","","72","img/motor_5.png","72","motor","5","296","1","0","0","",""
"null","","509850","HierDy3xgwra7w","f2oiftadk1","ms1000378","iti","","null","img/motor_5.png","72","motor","","","","","","",""
"722","","510584","HierDy3xgwra7w","f2oiftadk1","ms1000378","motor","","83","img/motor_2.png","83","motor","2","297","1","0","0","",""
"null","","510696","HierDy3xgwra7w","f2oiftadk1","ms1000378","iti","","null","img/motor_2.png","83","motor","","","","","","",""
"430","","511136","HierDy3xgwra7w","f2oiftadk1","ms1000378","motor","","65","img/motor_1.png","65","motor","1","298","1","0","0","",""
"null","","511250","HierDy3xgwra7w","f2oiftadk1","ms1000378","iti","","null","img/motor_1.png","65","motor","","","","","","",""
"423","","511684","HierDy3xgwra7w","f2oiftadk1","ms1000378","motor","","76","img/motor_8.png","76","motor","8","299","1","0","0","",""
"null","","511796","HierDy3xgwra7w","f2oiftadk1","ms1000378","iti","","null","img/motor_8.png","76","motor","","","","","","",""
"492","","512301","HierDy3xgwra7w","f2oiftadk1","ms1000378","motor","","65","img/motor_1.png","65","motor","1","300","1","0","0","",""
"null","","512414","HierDy3xgwra7w","f2oiftadk1","ms1000378","iti","","null","img/motor_1.png","65","motor","","","","","","",""
"594","","513020","HierDy3xgwra7w","f2oiftadk1","ms1000378","motor","","74","img/motor_6.png","74","motor","6","301","1","0","0","",""
"null","","513133","HierDy3xgwra7w","f2oiftadk1","ms1000378","iti","","null","img/motor_6.png","74","motor","","","","","","",""
"642","","513787","HierDy3xgwra7w","f2oiftadk1","ms1000378","motor","","72","img/motor_5.png","72","motor","5","302","1","0","0","",""
"null","","513900","HierDy3xgwra7w","f2oiftadk1","ms1000378","iti","","null","img/motor_5.png","72","motor","","","","","","",""
"529","","514440","HierDy3xgwra7w","f2oiftadk1","ms1000378","motor","","75","img/motor_7.png","75","motor","7","303","1","0","0","",""
"null","","514553","HierDy3xgwra7w","f2oiftadk1","ms1000378","iti","","null","img/motor_7.png","75","motor","","","","","","",""
"559","","515124","HierDy3xgwra7w","f2oiftadk1","ms1000378","motor","","74","img/motor_6.png","74","motor","6","304","1","0","0","",""
"null","","515237","HierDy3xgwra7w","f2oiftadk1","ms1000378","iti","","null","img/motor_6.png","74","motor","","","","","","",""
"612","","515860","HierDy3xgwra7w","f2oiftadk1","ms1000378","motor","","70","img/motor_4.png","70","motor","4","305","1","0","0","",""
"null","","515973","HierDy3xgwra7w","f2oiftadk1","ms1000378","iti","","null","img/motor_4.png","70","motor","","","","","","",""
"477","","516462","HierDy3xgwra7w","f2oiftadk1","ms1000378","motor","","68","img/motor_3.png","68","motor","3","306","1","0","0","",""
"null","","516575","HierDy3xgwra7w","f2oiftadk1","ms1000378","iti","","null","img/motor_3.png","68","motor","","","","","","",""
"422","","517009","HierDy3xgwra7w","f2oiftadk1","ms1000378","motor","","76","img/motor_8.png","76","motor","8","307","1","0","0","",""
"null","","517123","HierDy3xgwra7w","f2oiftadk1","ms1000378","iti","","null","img/motor_8.png","76","motor","","","","","","",""
"779","","517913","HierDy3xgwra7w","f2oiftadk1","ms1000378","motor","","68","img/motor_3.png","68","motor","3","308","1","0","0","",""
"null","","518026","HierDy3xgwra7w","f2oiftadk1","ms1000378","iti","","null","img/motor_3.png","68","motor","","","","","","",""
"618","","518659","HierDy3xgwra7w","f2oiftadk1","ms1000378","motor","","72","img/motor_5.png","72","motor","5","309","1","0","0","",""
"null","","518773","HierDy3xgwra7w","f2oiftadk1","ms1000378","iti","","null","img/motor_5.png","72","motor","","","","","","",""
"509","","519296","HierDy3xgwra7w","f2oiftadk1","ms1000378","motor","","75","img/motor_7.png","75","motor","7","310","1","0","0","",""
"null","","519408","HierDy3xgwra7w","f2oiftadk1","ms1000378","iti","","null","img/motor_7.png","75","motor","","","","","","",""
"527","","519947","HierDy3xgwra7w","f2oiftadk1","ms1000378","motor","","74","img/motor_6.png","74","motor","6","311","1","0","0","",""
"null","","520061","HierDy3xgwra7w","f2oiftadk1","ms1000378","iti","","null","img/motor_6.png","74","motor","","","","","","",""
"755","","520830","HierDy3xgwra7w","f2oiftadk1","ms1000378","motor","","83","img/motor_2.png","83","motor","2","312","1","0","0","",""
"null","","520943","HierDy3xgwra7w","f2oiftadk1","ms1000378","iti","","null","img/motor_2.png","83","motor","","","","","","",""
"490","","521444","HierDy3xgwra7w","f2oiftadk1","ms1000378","motor","","65","img/motor_1.png","65","motor","1","313","1","0","0","",""
"null","","521557","HierDy3xgwra7w","f2oiftadk1","ms1000378","iti","","null","img/motor_1.png","65","motor","","","","","","",""
"746","","522316","HierDy3xgwra7w","f2oiftadk1","ms1000378","motor","","70","img/motor_4.png","70","motor","4","314","1","0","0","",""
"null","","522429","HierDy3xgwra7w","f2oiftadk1","ms1000378","iti","","null","img/motor_4.png","70","motor","","","","","","",""
"476","","522920","HierDy3xgwra7w","f2oiftadk1","ms1000378","motor","","70","img/motor_4.png","70","motor","4","315","1","0","0","",""
"null","","523034","HierDy3xgwra7w","f2oiftadk1","ms1000378","iti","","null","img/motor_4.png","70","motor","","","","","","",""
"766","","523813","HierDy3xgwra7w","f2oiftadk1","ms1000378","motor","","74","img/motor_6.png","74","motor","6","316","1","0","0","",""
"null","","523926","HierDy3xgwra7w","f2oiftadk1","ms1000378","iti","","null","img/motor_6.png","74","motor","","","","","","",""
"444","","524382","HierDy3xgwra7w","f2oiftadk1","ms1000378","motor","","74","img/motor_6.png","74","motor","6","317","1","0","0","",""
"null","","524496","HierDy3xgwra7w","f2oiftadk1","ms1000378","iti","","null","img/motor_6.png","74","motor","","","","","","",""
"647","","525155","HierDy3xgwra7w","f2oiftadk1","ms1000378","motor","","65","img/motor_1.png","65","motor","1","318","1","0","0","",""
"null","","525269","HierDy3xgwra7w","f2oiftadk1","ms1000378","iti","","null","img/motor_1.png","65","motor","","","","","","",""
"1300","","526582","HierDy3xgwra7w","f2oiftadk1","ms1000378","motor","","83","img/motor_2.png","83","motor","2","319","1","0","0","",""
"null","","526695","HierDy3xgwra7w","f2oiftadk1","ms1000378","iti","","null","img/motor_2.png","83","motor","","","","","","",""
"1078","","527786","HierDy3xgwra7w","f2oiftadk1","ms1000378","motor","","70","img/motor_4.png","70","motor","4","320","1","0","0","",""
"null","","527900","HierDy3xgwra7w","f2oiftadk1","ms1000378","iti","","null","img/motor_4.png","70","motor","","","","","","",""
"596","","528508","HierDy3xgwra7w","f2oiftadk1","ms1000378","motor","","70","img/motor_4.png","70","motor","4","321","1","0","0","",""
"null","","528622","HierDy3xgwra7w","f2oiftadk1","ms1000378","iti","","null","img/motor_4.png","70","motor","","","","","","",""
"748","","529381","HierDy3xgwra7w","f2oiftadk1","ms1000378","motor","","83","img/motor_2.png","83","motor","2","322","1","0","0","",""
"null","","529495","HierDy3xgwra7w","f2oiftadk1","ms1000378","iti","","null","img/motor_2.png","83","motor","","","","","","",""
"709","","530214","HierDy3xgwra7w","f2oiftadk1","ms1000378","motor","","68","img/motor_3.png","68","motor","3","323","1","0","0","",""
"null","","530327","HierDy3xgwra7w","f2oiftadk1","ms1000378","iti","","null","img/motor_3.png","68","motor","","","","","","",""
"452","","530792","HierDy3xgwra7w","f2oiftadk1","ms1000378","motor","","68","img/motor_3.png","68","motor","3","324","1","0","0","",""
"null","","530906","HierDy3xgwra7w","f2oiftadk1","ms1000378","iti","","null","img/motor_3.png","68","motor","","","","","","",""
"497","","531414","HierDy3xgwra7w","f2oiftadk1","ms1000378","motor","","65","img/motor_1.png","65","motor","1","325","1","0","0","",""
"null","","531528","HierDy3xgwra7w","f2oiftadk1","ms1000378","iti","","null","img/motor_1.png","65","motor","","","","","","",""
"523","","532061","HierDy3xgwra7w","f2oiftadk1","ms1000378","motor","","76","img/motor_8.png","76","motor","8","326","1","0","0","",""
"null","","532175","HierDy3xgwra7w","f2oiftadk1","ms1000378","iti","","null","img/motor_8.png","76","motor","","","","","","",""
"550","","532736","HierDy3xgwra7w","f2oiftadk1","ms1000378","motor","","75","img/motor_7.png","75","motor","7","327","1","0","0","",""
"null","","532850","HierDy3xgwra7w","f2oiftadk1","ms1000378","iti","","null","img/motor_7.png","75","motor","","","","","","",""
"720","","533583","HierDy3xgwra7w","f2oiftadk1","ms1000378","motor","","68","img/motor_3.png","68","motor","3","328","1","0","0","",""
"null","","533695","HierDy3xgwra7w","f2oiftadk1","ms1000378","iti","","null","img/motor_3.png","68","motor","","","","","","",""
"654","","534361","HierDy3xgwra7w","f2oiftadk1","ms1000378","motor","","75","img/motor_7.png","75","motor","7","329","1","0","0","",""
"null","","534475","HierDy3xgwra7w","f2oiftadk1","ms1000378","iti","","null","img/motor_7.png","75","motor","","","","","","",""
"732","","535220","HierDy3xgwra7w","f2oiftadk1","ms1000378","motor","","72","img/motor_5.png","72","motor","5","330","1","0","0","",""
"null","","535333","HierDy3xgwra7w","f2oiftadk1","ms1000378","iti","","null","img/motor_5.png","72","motor","","","","","","",""
"818","","536162","HierDy3xgwra7w","f2oiftadk1","ms1000378","motor","","68","img/motor_3.png","68","motor","3","331","1","0","0","",""
"null","","536274","HierDy3xgwra7w","f2oiftadk1","ms1000378","iti","","null","img/motor_3.png","68","motor","","","","","","",""
"548","","536835","HierDy3xgwra7w","f2oiftadk1","ms1000378","motor","","70","img/motor_4.png","70","motor","4","332","1","0","0","",""
"null","","536948","HierDy3xgwra7w","f2oiftadk1","ms1000378","iti","","null","img/motor_4.png","70","motor","","","","","","",""
"518","","537477","HierDy3xgwra7w","f2oiftadk1","ms1000378","motor","","72","img/motor_5.png","72","motor","5","333","1","0","0","",""
"null","","537591","HierDy3xgwra7w","f2oiftadk1","ms1000378","iti","","null","img/motor_5.png","72","motor","","","","","","",""
"592","","538195","HierDy3xgwra7w","f2oiftadk1","ms1000378","motor","","70","img/motor_4.png","70","motor","4","334","1","0","0","",""
"null","","538308","HierDy3xgwra7w","f2oiftadk1","ms1000378","iti","","null","img/motor_4.png","70","motor","","","","","","",""
"619","","538939","HierDy3xgwra7w","f2oiftadk1","ms1000378","motor","","65","img/motor_1.png","65","motor","1","335","1","0","0","",""
"null","","539053","HierDy3xgwra7w","f2oiftadk1","ms1000378","iti","","null","img/motor_1.png","65","motor","","","","","","",""
"967","","540033","HierDy3xgwra7w","f2oiftadk1","ms1000378","motor","","68","img/motor_3.png","68","motor","3","336","1","0","0","",""
"null","","540146","HierDy3xgwra7w","f2oiftadk1","ms1000378","iti","","null","img/motor_3.png","68","motor","","","","","","",""
"469","","540625","HierDy3xgwra7w","f2oiftadk1","ms1000378","motor","","70","img/motor_4.png","70","motor","4","337","1","0","0","",""
"null","","540739","HierDy3xgwra7w","f2oiftadk1","ms1000378","iti","","null","img/motor_4.png","70","motor","","","","","","",""
"547","","541298","HierDy3xgwra7w","f2oiftadk1","ms1000378","motor","","74","img/motor_6.png","74","motor","6","338","1","0","0","",""
"null","","541410","HierDy3xgwra7w","f2oiftadk1","ms1000378","iti","","null","img/motor_6.png","74","motor","","","","","","",""
"502","","541925","HierDy3xgwra7w","f2oiftadk1","ms1000378","motor","","76","img/motor_8.png","76","motor","8","339","1","0","0","",""
"null","","542037","HierDy3xgwra7w","f2oiftadk1","ms1000378","iti","","null","img/motor_8.png","76","motor","","","","","","",""
"469","","542519","HierDy3xgwra7w","f2oiftadk1","ms1000378","motor","","72","img/motor_5.png","72","motor","5","340","1","0","0","",""
"null","","542631","HierDy3xgwra7w","f2oiftadk1","ms1000378","iti","","null","img/motor_5.png","72","motor","","","","","","",""
"808","","543451","HierDy3xgwra7w","f2oiftadk1","ms1000378","motor","","83","img/motor_2.png","83","motor","2","341","1","0","0","",""
"null","","543564","HierDy3xgwra7w","f2oiftadk1","ms1000378","iti","","null","img/motor_2.png","83","motor","","","","","","",""
"423","","543999","HierDy3xgwra7w","f2oiftadk1","ms1000378","motor","","65","img/motor_1.png","65","motor","1","342","1","0","0","",""
"null","","544114","HierDy3xgwra7w","f2oiftadk1","ms1000378","iti","","null","img/motor_1.png","65","motor","","","","","","",""
"516","","544642","HierDy3xgwra7w","f2oiftadk1","ms1000378","motor","","65","img/motor_1.png","65","motor","1","343","1","0","0","",""
"null","","544755","HierDy3xgwra7w","f2oiftadk1","ms1000378","iti","","null","img/motor_1.png","65","motor","","","","","","",""
"502","","545269","HierDy3xgwra7w","f2oiftadk1","ms1000378","motor","","83","img/motor_3.png","68","motor","3","344","0","1","0","",""
"347","","545627","HierDy3xgwra7w","f2oiftadk1","ms1000378","motorRepeat","","68","img/motor_3.png","68","motor","3","344","1","0","0","",""
"null","","545740","HierDy3xgwra7w","f2oiftadk1","ms1000378","iti","","null","img/motor_3.png","68","motor","","","","","","",""
"480","","546233","HierDy3xgwra7w","f2oiftadk1","ms1000378","motor","","70","img/motor_4.png","70","motor","4","345","1","0","0","",""
"null","","546346","HierDy3xgwra7w","f2oiftadk1","ms1000378","iti","","null","img/motor_4.png","70","motor","","","","","","",""
"431","","546789","HierDy3xgwra7w","f2oiftadk1","ms1000378","motor","","72","img/motor_5.png","72","motor","5","346","1","0","0","",""
"null","","546903","HierDy3xgwra7w","f2oiftadk1","ms1000378","iti","","null","img/motor_5.png","72","motor","","","","","","",""
"492","","547406","HierDy3xgwra7w","f2oiftadk1","ms1000378","motor","","65","img/motor_1.png","65","motor","1","347","1","0","0","",""
"null","","547520","HierDy3xgwra7w","f2oiftadk1","ms1000378","iti","","null","img/motor_1.png","65","motor","","","","","","",""
"591","","548123","HierDy3xgwra7w","f2oiftadk1","ms1000378","motor","","83","img/motor_2.png","83","motor","2","348","1","0","0","",""
"null","","548236","HierDy3xgwra7w","f2oiftadk1","ms1000378","iti","","null","img/motor_2.png","83","motor","","","","","","",""
"612","","548861","HierDy3xgwra7w","f2oiftadk1","ms1000378","motor","","75","img/motor_7.png","75","motor","7","349","1","0","0","",""
"null","","548975","HierDy3xgwra7w","f2oiftadk1","ms1000378","iti","","null","img/motor_7.png","75","motor","","","","","","",""
"521","","549509","HierDy3xgwra7w","f2oiftadk1","ms1000378","motor","","65","img/motor_1.png","65","motor","1","350","1","0","0","",""
"null","","549622","HierDy3xgwra7w","f2oiftadk1","ms1000378","iti","","null","img/motor_1.png","65","motor","","","","","","",""
"403","","550037","HierDy3xgwra7w","f2oiftadk1","ms1000378","motor","","70","img/motor_4.png","70","motor","4","351","1","0","0","",""
"null","","550150","HierDy3xgwra7w","f2oiftadk1","ms1000378","iti","","null","img/motor_4.png","70","motor","","","","","","",""
"472","","550634","HierDy3xgwra7w","f2oiftadk1","ms1000378","motor","","83","img/motor_2.png","83","motor","2","352","1","0","0","",""
"null","","550747","HierDy3xgwra7w","f2oiftadk1","ms1000378","iti","","null","img/motor_2.png","83","motor","","","","","","",""
"660","","551421","HierDy3xgwra7w","f2oiftadk1","ms1000378","motor","","72","img/motor_5.png","72","motor","5","353","1","0","0","",""
"null","","551533","HierDy3xgwra7w","f2oiftadk1","ms1000378","iti","","null","img/motor_5.png","72","motor","","","","","","",""
"404","","551949","HierDy3xgwra7w","f2oiftadk1","ms1000378","motor","","76","img/motor_8.png","76","motor","8","354","1","0","0","",""
"null","","552062","HierDy3xgwra7w","f2oiftadk1","ms1000378","iti","","null","img/motor_8.png","76","motor","","","","","","",""
"968","","553041","HierDy3xgwra7w","f2oiftadk1","ms1000378","motor","","74","img/motor_6.png","74","motor","6","355","1","0","0","",""
"null","","553155","HierDy3xgwra7w","f2oiftadk1","ms1000378","iti","","null","img/motor_6.png","74","motor","","","","","","",""
"472","","553639","HierDy3xgwra7w","f2oiftadk1","ms1000378","motor","","72","img/motor_5.png","72","motor","5","356","1","0","0","",""
"null","","553753","HierDy3xgwra7w","f2oiftadk1","ms1000378","iti","","null","img/motor_5.png","72","motor","","","","","","",""
"943","","554709","HierDy3xgwra7w","f2oiftadk1","ms1000378","motor","","68","img/motor_3.png","68","motor","3","357","1","0","0","",""
"null","","554822","HierDy3xgwra7w","f2oiftadk1","ms1000378","iti","","null","img/motor_3.png","68","motor","","","","","","",""
"533","","555368","HierDy3xgwra7w","f2oiftadk1","ms1000378","motor","","72","img/motor_5.png","72","motor","5","358","1","0","0","",""
"null","","555480","HierDy3xgwra7w","f2oiftadk1","ms1000378","iti","","null","img/motor_5.png","72","motor","","","","","","",""
"496","","555989","HierDy3xgwra7w","f2oiftadk1","ms1000378","motor","","65","img/motor_1.png","65","motor","1","359","1","0","0","",""
"null","","556102","HierDy3xgwra7w","f2oiftadk1","ms1000378","iti","","null","img/motor_1.png","65","motor","","","","","","",""
"502","","556615","HierDy3xgwra7w","f2oiftadk1","ms1000378","motor","","74","img/motor_6.png","74","motor","6","360","1","0","0","",""
"null","","556729","HierDy3xgwra7w","f2oiftadk1","ms1000378","iti","","null","img/motor_6.png","74","motor","","","","","","",""
"483","","557224","HierDy3xgwra7w","f2oiftadk1","ms1000378","motor","","70","img/motor_4.png","70","motor","4","361","1","0","0","",""
"null","","557337","HierDy3xgwra7w","f2oiftadk1","ms1000378","iti","","null","img/motor_4.png","70","motor","","","","","","",""
"493","","557843","HierDy3xgwra7w","f2oiftadk1","ms1000378","motor","","65","img/motor_1.png","65","motor","1","362","1","0","0","",""
"null","","557956","HierDy3xgwra7w","f2oiftadk1","ms1000378","iti","","null","img/motor_1.png","65","motor","","","","","","",""
"822","","558789","HierDy3xgwra7w","f2oiftadk1","ms1000378","motor","","68","img/motor_3.png","68","motor","3","363","1","0","0","",""
"null","","558903","HierDy3xgwra7w","f2oiftadk1","ms1000378","iti","","null","img/motor_3.png","68","motor","","","","","","",""
"438","","559354","HierDy3xgwra7w","f2oiftadk1","ms1000378","motor","","83","img/motor_2.png","83","motor","2","364","1","0","0","",""
"null","","559467","HierDy3xgwra7w","f2oiftadk1","ms1000378","iti","","null","img/motor_2.png","83","motor","","","","","","",""
"541","","560019","HierDy3xgwra7w","f2oiftadk1","ms1000378","motor","","68","img/motor_3.png","68","motor","3","365","1","0","0","",""
"null","","560133","HierDy3xgwra7w","f2oiftadk1","ms1000378","iti","","null","img/motor_3.png","68","motor","","","","","","",""
"512","","560657","HierDy3xgwra7w","f2oiftadk1","ms1000378","motor","","75","img/motor_7.png","75","motor","7","366","1","0","0","",""
"null","","560770","HierDy3xgwra7w","f2oiftadk1","ms1000378","iti","","null","img/motor_7.png","75","motor","","","","","","",""
"507","","561291","HierDy3xgwra7w","f2oiftadk1","ms1000378","motor","","65","img/motor_1.png","65","motor","1","367","1","0","0","",""
"null","","561403","HierDy3xgwra7w","f2oiftadk1","ms1000378","iti","","null","img/motor_1.png","65","motor","","","","","","",""
"511","","561926","HierDy3xgwra7w","f2oiftadk1","ms1000378","motor","","65","img/motor_1.png","65","motor","1","368","1","0","0","",""
"null","","562040","HierDy3xgwra7w","f2oiftadk1","ms1000378","iti","","null","img/motor_1.png","65","motor","","","","","","",""
"478","","562530","HierDy3xgwra7w","f2oiftadk1","ms1000378","motor","","75","img/motor_7.png","75","motor","7","369","1","0","0","",""
"null","","562642","HierDy3xgwra7w","f2oiftadk1","ms1000378","iti","","null","img/motor_7.png","75","motor","","","","","","",""
"988","","563643","HierDy3xgwra7w","f2oiftadk1","ms1000378","motor","","76","img/motor_8.png","76","motor","8","370","1","0","0","",""
