rt,responses,time_elapsed,subject,prolificID,demoID,trialType,question_order,key_press,stim,corrresp,phase,stimNum,trialNum,corr,repeatTrial,motorSwitch,pracCounter,hierarchy
7831,"{""Q0"":""ms1000203""}",7864,HierDy96kzfve8,77dc2ab8m7,ms1000203,,,,,,,,,,,,,
2166,,10042,HierDy96kzfve8,77dc2ab8m7,ms1000203,,,,,,,,,,,,,
,,12133,HierDy96kzfve8,77dc2ab8m7,ms1000203,fullscreen,,,,,,,,,,,,
19033,"{""Vision"":""Yes"",""Handedness"":""Left"",""Gender"":""nonbinary""}",31177,HierDy96kzfve8,77dc2ab8m7,ms1000203,,"[0,1,2]",,,,,,,,,,,
4187,"{""Q0"":""18""}",35377,HierDy96kzfve8,77dc2ab8m7,ms1000203,,,,,,,,,,,,,
78180,,113570,HierDy96kzfve8,77dc2ab8m7,ms1000203,,,,,,,,,,,,,
1505,,115086,HierDy96kzfve8,77dc2ab8m7,ms1000203,motor,,68,img/motor_3.png,68,motor,3,1,1,0,0,,
null,,115199,HierDy96kzfve8,77dc2ab8m7,ms1000203,iti,,null,img/motor_3.png,68,motor,,,,,,,
739,,115949,HierDy96kzfve8,77dc2ab8m7,ms1000203,motor,,75,img/motor_7.png,75,motor,7,2,1,0,0,,
null,,116060,HierDy96kzfve8,77dc2ab8m7,ms1000203,iti,,null,img/motor_7.png,75,motor,,,,,,,
502,,116573,HierDy96kzfve8,77dc2ab8m7,ms1000203,motor,,65,img/motor_1.png,65,motor,1,3,1,0,0,,
null,,116684,HierDy96kzfve8,77dc2ab8m7,ms1000203,iti,,null,img/motor_1.png,65,motor,,,,,,,
377,,117070,HierDy96kzfve8,77dc2ab8m7,ms1000203,motor,,75,img/motor_6.png,74,motor,6,4,0,1,0,,
242,,117321,HierDy96kzfve8,77dc2ab8m7,ms1000203,motorRepeat,,72,img/motor_6.png,74,motor,6,4,0,1,0,,
304,,117636,HierDy96kzfve8,77dc2ab8m7,ms1000203,motorRepeat,,74,img/motor_6.png,74,motor,6,4,1,0,0,,
null,,117748,HierDy96kzfve8,77dc2ab8m7,ms1000203,iti,,null,img/motor_6.png,74,motor,,,,,,,
567,,118325,HierDy96kzfve8,77dc2ab8m7,ms1000203,motor,,72,img/motor_5.png,72,motor,5,5,1,0,0,,
null,,118436,HierDy96kzfve8,77dc2ab8m7,ms1000203,iti,,null,img/motor_5.png,72,motor,,,,,,,
1236,,119682,HierDy96kzfve8,77dc2ab8m7,ms1000203,motor,,68,img/motor_3.png,68,motor,3,6,1,0,0,,
null,,119793,HierDy96kzfve8,77dc2ab8m7,ms1000203,iti,,null,img/motor_3.png,68,motor,,,,,,,
530,,120333,HierDy96kzfve8,77dc2ab8m7,ms1000203,motor,,83,img/motor_2.png,83,motor,2,7,1,0,0,,
null,,120444,HierDy96kzfve8,77dc2ab8m7,ms1000203,iti,,null,img/motor_2.png,83,motor,,,,,,,
460,,120915,HierDy96kzfve8,77dc2ab8m7,ms1000203,motor,,70,img/motor_4.png,70,motor,4,8,1,0,0,,
null,,121026,HierDy96kzfve8,77dc2ab8m7,ms1000203,iti,,null,img/motor_4.png,70,motor,,,,,,,
809,,121845,HierDy96kzfve8,77dc2ab8m7,ms1000203,motor,,72,img/motor_5.png,72,motor,5,9,1,0,0,,
null,,121956,HierDy96kzfve8,77dc2ab8m7,ms1000203,iti,,null,img/motor_5.png,72,motor,,,,,,,
680,,122646,HierDy96kzfve8,77dc2ab8m7,ms1000203,motor,,68,img/motor_3.png,68,motor,3,10,1,0,0,,
null,,122758,HierDy96kzfve8,77dc2ab8m7,ms1000203,iti,,null,img/motor_3.png,68,motor,,,,,,,
363,,123130,HierDy96kzfve8,77dc2ab8m7,ms1000203,motor,,70,img/motor_4.png,70,motor,4,11,1,0,0,,
null,,123240,HierDy96kzfve8,77dc2ab8m7,ms1000203,iti,,null,img/motor_4.png,70,motor,,,,,,,
354,,123605,HierDy96kzfve8,77dc2ab8m7,ms1000203,motor,,70,img/motor_4.png,70,motor,4,12,1,0,0,,
null,,123716,HierDy96kzfve8,77dc2ab8m7,ms1000203,iti,,null,img/motor_4.png,70,motor,,,,,,,
581,,124307,HierDy96kzfve8,77dc2ab8m7,ms1000203,motor,,74,img/motor_6.png,74,motor,6,13,1,0,0,,
null,,124418,HierDy96kzfve8,77dc2ab8m7,ms1000203,iti,,null,img/motor_6.png,74,motor,,,,,,,
339,,124767,HierDy96kzfve8,77dc2ab8m7,ms1000203,motor,,72,img/motor_5.png,72,motor,5,14,1,0,0,,
null,,124879,HierDy96kzfve8,77dc2ab8m7,ms1000203,iti,,null,img/motor_5.png,72,motor,,,,,,,
374,,125264,HierDy96kzfve8,77dc2ab8m7,ms1000203,motor,,75,img/motor_7.png,75,motor,7,15,1,0,0,,
null,,125375,HierDy96kzfve8,77dc2ab8m7,ms1000203,iti,,null,img/motor_7.png,75,motor,,,,,,,
411,,125795,HierDy96kzfve8,77dc2ab8m7,ms1000203,motor,,83,img/motor_2.png,83,motor,2,16,1,0,0,,
null,,125907,HierDy96kzfve8,77dc2ab8m7,ms1000203,iti,,null,img/motor_2.png,83,motor,,,,,,,
369,,126285,HierDy96kzfve8,77dc2ab8m7,ms1000203,motor,,70,img/motor_4.png,70,motor,4,17,1,0,0,,
null,,126395,HierDy96kzfve8,77dc2ab8m7,ms1000203,iti,,null,img/motor_4.png,70,motor,,,,,,,
566,,126971,HierDy96kzfve8,77dc2ab8m7,ms1000203,motor,,74,img/motor_6.png,74,motor,6,18,1,0,0,,
null,,127082,HierDy96kzfve8,77dc2ab8m7,ms1000203,iti,,null,img/motor_6.png,74,motor,,,,,,,
342,,127435,HierDy96kzfve8,77dc2ab8m7,ms1000203,motor,,83,img/motor_1.png,65,motor,1,19,0,1,0,,
271,,127717,HierDy96kzfve8,77dc2ab8m7,ms1000203,motorRepeat,,65,img/motor_1.png,65,motor,1,19,1,0,0,,
null,,127830,HierDy96kzfve8,77dc2ab8m7,ms1000203,iti,,null,img/motor_1.png,65,motor,,,,,,,
445,,128287,HierDy96kzfve8,77dc2ab8m7,ms1000203,motor,,72,img/motor_5.png,72,motor,5,20,1,0,0,,
null,,128398,HierDy96kzfve8,77dc2ab8m7,ms1000203,iti,,null,img/motor_5.png,72,motor,,,,,,,
290,,128700,HierDy96kzfve8,77dc2ab8m7,ms1000203,motor,,74,img/motor_6.png,74,motor,6,21,1,0,0,,
null,,128810,HierDy96kzfve8,77dc2ab8m7,ms1000203,iti,,null,img/motor_6.png,74,motor,,,,,,,
397,,129217,HierDy96kzfve8,77dc2ab8m7,ms1000203,motor,,76,img/motor_8.png,76,motor,8,22,1,0,0,,
null,,129329,HierDy96kzfve8,77dc2ab8m7,ms1000203,iti,,null,img/motor_8.png,76,motor,,,,,,,
499,,129840,HierDy96kzfve8,77dc2ab8m7,ms1000203,motor,,70,img/motor_4.png,70,motor,4,23,1,0,0,,
null,,129951,HierDy96kzfve8,77dc2ab8m7,ms1000203,iti,,null,img/motor_4.png,70,motor,,,,,,,
393,,130356,HierDy96kzfve8,77dc2ab8m7,ms1000203,motor,,72,img/motor_5.png,72,motor,5,24,1,0,0,,
null,,130467,HierDy96kzfve8,77dc2ab8m7,ms1000203,iti,,null,img/motor_5.png,72,motor,,,,,,,
448,,130926,HierDy96kzfve8,77dc2ab8m7,ms1000203,motor,,65,img/motor_2.png,83,motor,2,25,0,1,0,,
351,,131288,HierDy96kzfve8,77dc2ab8m7,ms1000203,motorRepeat,,83,img/motor_2.png,83,motor,2,25,1,0,0,,
null,,131400,HierDy96kzfve8,77dc2ab8m7,ms1000203,iti,,null,img/motor_2.png,83,motor,,,,,,,
505,,131914,HierDy96kzfve8,77dc2ab8m7,ms1000203,motor,,83,img/motor_2.png,83,motor,2,26,1,0,0,,
null,,132024,HierDy96kzfve8,77dc2ab8m7,ms1000203,iti,,null,img/motor_2.png,83,motor,,,,,,,
497,,132531,HierDy96kzfve8,77dc2ab8m7,ms1000203,motor,,76,img/motor_8.png,76,motor,8,27,1,0,0,,
null,,132643,HierDy96kzfve8,77dc2ab8m7,ms1000203,iti,,null,img/motor_8.png,76,motor,,,,,,,
450,,133103,HierDy96kzfve8,77dc2ab8m7,ms1000203,motor,,70,img/motor_4.png,70,motor,4,28,1,0,0,,
null,,133215,HierDy96kzfve8,77dc2ab8m7,ms1000203,iti,,null,img/motor_4.png,70,motor,,,,,,,
329,,133554,HierDy96kzfve8,77dc2ab8m7,ms1000203,motor,,68,img/motor_3.png,68,motor,3,29,1,0,0,,
null,,133665,HierDy96kzfve8,77dc2ab8m7,ms1000203,iti,,null,img/motor_3.png,68,motor,,,,,,,
406,,134082,HierDy96kzfve8,77dc2ab8m7,ms1000203,motor,,68,img/motor_3.png,68,motor,3,30,1,0,0,,
null,,134193,HierDy96kzfve8,77dc2ab8m7,ms1000203,iti,,null,img/motor_3.png,68,motor,,,,,,,
576,,134780,HierDy96kzfve8,77dc2ab8m7,ms1000203,motor,,65,img/motor_1.png,65,motor,1,31,1,0,0,,
null,,134889,HierDy96kzfve8,77dc2ab8m7,ms1000203,iti,,null,img/motor_1.png,65,motor,,,,,,,
471,,135371,HierDy96kzfve8,77dc2ab8m7,ms1000203,motor,,72,img/motor_5.png,72,motor,5,32,1,0,0,,
null,,135481,HierDy96kzfve8,77dc2ab8m7,ms1000203,iti,,null,img/motor_5.png,72,motor,,,,,,,
406,,135899,HierDy96kzfve8,77dc2ab8m7,ms1000203,motor,,76,img/motor_8.png,76,motor,8,33,1,0,0,,
null,,136009,HierDy96kzfve8,77dc2ab8m7,ms1000203,iti,,null,img/motor_8.png,76,motor,,,,,,,
466,,136486,HierDy96kzfve8,77dc2ab8m7,ms1000203,motor,,83,img/motor_2.png,83,motor,2,34,1,0,0,,
null,,136597,HierDy96kzfve8,77dc2ab8m7,ms1000203,iti,,null,img/motor_2.png,83,motor,,,,,,,
310,,136917,HierDy96kzfve8,77dc2ab8m7,ms1000203,motor,,68,img/motor_3.png,68,motor,3,35,1,0,0,,
null,,137027,HierDy96kzfve8,77dc2ab8m7,ms1000203,iti,,null,img/motor_3.png,68,motor,,,,,,,
382,,137420,HierDy96kzfve8,77dc2ab8m7,ms1000203,motor,,65,img/motor_1.png,65,motor,1,36,1,0,0,,
null,,137531,HierDy96kzfve8,77dc2ab8m7,ms1000203,iti,,null,img/motor_1.png,65,motor,,,,,,,
514,,138055,HierDy96kzfve8,77dc2ab8m7,ms1000203,motor,,72,img/motor_5.png,72,motor,5,37,1,0,0,,
null,,138167,HierDy96kzfve8,77dc2ab8m7,ms1000203,iti,,null,img/motor_5.png,72,motor,,,,,,,
402,,138579,HierDy96kzfve8,77dc2ab8m7,ms1000203,motor,,76,img/motor_8.png,76,motor,8,38,1,0,0,,
null,,138690,HierDy96kzfve8,77dc2ab8m7,ms1000203,iti,,null,img/motor_8.png,76,motor,,,,,,,
335,,139035,HierDy96kzfve8,77dc2ab8m7,ms1000203,motor,,83,img/motor_2.png,83,motor,2,39,1,0,0,,
null,,139146,HierDy96kzfve8,77dc2ab8m7,ms1000203,iti,,null,img/motor_2.png,83,motor,,,,,,,
316,,139472,HierDy96kzfve8,77dc2ab8m7,ms1000203,motor,,83,img/motor_2.png,83,motor,2,40,1,0,0,,
null,,139583,HierDy96kzfve8,77dc2ab8m7,ms1000203,iti,,null,img/motor_2.png,83,motor,,,,,,,
366,,139959,HierDy96kzfve8,77dc2ab8m7,ms1000203,motor,,76,img/motor_8.png,76,motor,8,41,1,0,0,,
null,,140070,HierDy96kzfve8,77dc2ab8m7,ms1000203,iti,,null,img/motor_8.png,76,motor,,,,,,,
357,,140437,HierDy96kzfve8,77dc2ab8m7,ms1000203,motor,,65,img/motor_1.png,65,motor,1,42,1,0,0,,
null,,140548,HierDy96kzfve8,77dc2ab8m7,ms1000203,iti,,null,img/motor_1.png,65,motor,,,,,,,
308,,140867,HierDy96kzfve8,77dc2ab8m7,ms1000203,motor,,65,img/motor_1.png,65,motor,1,43,1,0,0,,
null,,140978,HierDy96kzfve8,77dc2ab8m7,ms1000203,iti,,null,img/motor_1.png,65,motor,,,,,,,
455,,141445,HierDy96kzfve8,77dc2ab8m7,ms1000203,motor,,72,img/motor_5.png,72,motor,5,44,1,0,0,,
null,,141555,HierDy96kzfve8,77dc2ab8m7,ms1000203,iti,,null,img/motor_5.png,72,motor,,,,,,,
292,,141857,HierDy96kzfve8,77dc2ab8m7,ms1000203,motor,,74,img/motor_6.png,74,motor,6,45,1,0,0,,
null,,141968,HierDy96kzfve8,77dc2ab8m7,ms1000203,iti,,null,img/motor_6.png,74,motor,,,,,,,
310,,142288,HierDy96kzfve8,77dc2ab8m7,ms1000203,motor,,83,img/motor_3.png,68,motor,3,46,0,1,0,,
211,,142507,HierDy96kzfve8,77dc2ab8m7,ms1000203,motorRepeat,,68,img/motor_3.png,68,motor,3,46,1,0,0,,
null,,142618,HierDy96kzfve8,77dc2ab8m7,ms1000203,iti,,null,img/motor_3.png,68,motor,,,,,,,
387,,143015,HierDy96kzfve8,77dc2ab8m7,ms1000203,motor,,83,img/motor_2.png,83,motor,2,47,1,0,0,,
null,,143128,HierDy96kzfve8,77dc2ab8m7,ms1000203,iti,,null,img/motor_2.png,83,motor,,,,,,,
510,,143648,HierDy96kzfve8,77dc2ab8m7,ms1000203,motor,,75,img/motor_6.png,74,motor,6,48,0,1,0,,
97,,143754,HierDy96kzfve8,77dc2ab8m7,ms1000203,motorRepeat,,74,img/motor_6.png,74,motor,6,48,1,0,0,,
null,,143865,HierDy96kzfve8,77dc2ab8m7,ms1000203,iti,,null,img/motor_6.png,74,motor,,,,,,,
410,,144284,HierDy96kzfve8,77dc2ab8m7,ms1000203,motor,,65,img/motor_1.png,65,motor,1,49,1,0,0,,
null,,144394,HierDy96kzfve8,77dc2ab8m7,ms1000203,iti,,null,img/motor_1.png,65,motor,,,,,,,
402,,144808,HierDy96kzfve8,77dc2ab8m7,ms1000203,motor,,75,img/motor_7.png,75,motor,7,50,1,0,0,,
null,,144918,HierDy96kzfve8,77dc2ab8m7,ms1000203,iti,,null,img/motor_7.png,75,motor,,,,,,,
371,,145299,HierDy96kzfve8,77dc2ab8m7,ms1000203,motor,,74,img/motor_5.png,72,motor,5,51,0,1,0,,
275,,145585,HierDy96kzfve8,77dc2ab8m7,ms1000203,motorRepeat,,72,img/motor_5.png,72,motor,5,51,1,0,0,,
null,,145696,HierDy96kzfve8,77dc2ab8m7,ms1000203,iti,,null,img/motor_5.png,72,motor,,,,,,,
522,,146228,HierDy96kzfve8,77dc2ab8m7,ms1000203,motor,,68,img/motor_3.png,68,motor,3,52,1,0,0,,
null,,146339,HierDy96kzfve8,77dc2ab8m7,ms1000203,iti,,null,img/motor_3.png,68,motor,,,,,,,
370,,146719,HierDy96kzfve8,77dc2ab8m7,ms1000203,motor,,70,img/motor_4.png,70,motor,4,53,1,0,0,,
null,,146830,HierDy96kzfve8,77dc2ab8m7,ms1000203,iti,,null,img/motor_4.png,70,motor,,,,,,,
410,,147250,HierDy96kzfve8,77dc2ab8m7,ms1000203,motor,,75,img/motor_7.png,75,motor,7,54,1,0,0,,
null,,147362,HierDy96kzfve8,77dc2ab8m7,ms1000203,iti,,null,img/motor_7.png,75,motor,,,,,,,
321,,147693,HierDy96kzfve8,77dc2ab8m7,ms1000203,motor,,74,img/motor_6.png,74,motor,6,55,1,0,0,,
null,,147804,HierDy96kzfve8,77dc2ab8m7,ms1000203,iti,,null,img/motor_6.png,74,motor,,,,,,,
371,,148185,HierDy96kzfve8,77dc2ab8m7,ms1000203,motor,,75,img/motor_7.png,75,motor,7,56,1,0,0,,
null,,148296,HierDy96kzfve8,77dc2ab8m7,ms1000203,iti,,null,img/motor_7.png,75,motor,,,,,,,
468,,148773,HierDy96kzfve8,77dc2ab8m7,ms1000203,motor,,76,img/motor_8.png,76,motor,8,57,1,0,0,,
null,,148884,HierDy96kzfve8,77dc2ab8m7,ms1000203,iti,,null,img/motor_8.png,76,motor,,,,,,,
299,,149193,HierDy96kzfve8,77dc2ab8m7,ms1000203,motor,,75,img/motor_6.png,74,motor,6,58,0,1,0,,
236,,149439,HierDy96kzfve8,77dc2ab8m7,ms1000203,motorRepeat,,74,img/motor_6.png,74,motor,6,58,1,0,0,,
null,,149550,HierDy96kzfve8,77dc2ab8m7,ms1000203,iti,,null,img/motor_6.png,74,motor,,,,,,,
299,,149860,HierDy96kzfve8,77dc2ab8m7,ms1000203,motor,,75,img/motor_7.png,75,motor,7,59,1,0,0,,
null,,149971,HierDy96kzfve8,77dc2ab8m7,ms1000203,iti,,null,img/motor_7.png,75,motor,,,,,,,
414,,150396,HierDy96kzfve8,77dc2ab8m7,ms1000203,motor,,83,img/motor_3.png,68,motor,3,60,0,1,0,,
138,,150544,HierDy96kzfve8,77dc2ab8m7,ms1000203,motorRepeat,,68,img/motor_3.png,68,motor,3,60,1,0,0,,
null,,150656,HierDy96kzfve8,77dc2ab8m7,ms1000203,iti,,null,img/motor_3.png,68,motor,,,,,,,
447,,151113,HierDy96kzfve8,77dc2ab8m7,ms1000203,motor,,76,img/motor_8.png,76,motor,8,61,1,0,0,,
null,,151224,HierDy96kzfve8,77dc2ab8m7,ms1000203,iti,,null,img/motor_8.png,76,motor,,,,,,,
434,,151668,HierDy96kzfve8,77dc2ab8m7,ms1000203,motor,,65,img/motor_1.png,65,motor,1,62,1,0,0,,
null,,151780,HierDy96kzfve8,77dc2ab8m7,ms1000203,iti,,null,img/motor_1.png,65,motor,,,,,,,
376,,152165,HierDy96kzfve8,77dc2ab8m7,ms1000203,motor,,76,img/motor_8.png,76,motor,8,63,1,0,0,,
null,,152275,HierDy96kzfve8,77dc2ab8m7,ms1000203,iti,,null,img/motor_8.png,76,motor,,,,,,,
448,,152735,HierDy96kzfve8,77dc2ab8m7,ms1000203,motor,,68,img/motor_3.png,68,motor,3,64,1,0,0,,
null,,152846,HierDy96kzfve8,77dc2ab8m7,ms1000203,iti,,null,img/motor_3.png,68,motor,,,,,,,
422,,153279,HierDy96kzfve8,77dc2ab8m7,ms1000203,motor,,74,img/motor_6.png,74,motor,6,65,1,0,0,,
null,,153390,HierDy96kzfve8,77dc2ab8m7,ms1000203,iti,,null,img/motor_6.png,74,motor,,,,,,,
312,,153712,HierDy96kzfve8,77dc2ab8m7,ms1000203,motor,,75,img/motor_7.png,75,motor,7,66,1,0,0,,
null,,153823,HierDy96kzfve8,77dc2ab8m7,ms1000203,iti,,null,img/motor_7.png,75,motor,,,,,,,
344,,154179,HierDy96kzfve8,77dc2ab8m7,ms1000203,motor,,68,img/motor_2.png,83,motor,2,67,0,1,0,,
251,,154439,HierDy96kzfve8,77dc2ab8m7,ms1000203,motorRepeat,,83,img/motor_2.png,83,motor,2,67,1,0,0,,
null,,154550,HierDy96kzfve8,77dc2ab8m7,ms1000203,iti,,null,img/motor_2.png,83,motor,,,,,,,
471,,155031,HierDy96kzfve8,77dc2ab8m7,ms1000203,motor,,68,img/motor_4.png,70,motor,4,68,0,1,0,,
226,,155268,HierDy96kzfve8,77dc2ab8m7,ms1000203,motorRepeat,,70,img/motor_4.png,70,motor,4,68,1,0,0,,
null,,155379,HierDy96kzfve8,77dc2ab8m7,ms1000203,iti,,null,img/motor_4.png,70,motor,,,,,,,
346,,155736,HierDy96kzfve8,77dc2ab8m7,ms1000203,motor,,65,img/motor_1.png,65,motor,1,69,1,0,0,,
null,,155847,HierDy96kzfve8,77dc2ab8m7,ms1000203,iti,,null,img/motor_1.png,65,motor,,,,,,,
586,,156443,HierDy96kzfve8,77dc2ab8m7,ms1000203,motor,,68,img/motor_3.png,68,motor,3,70,1,0,0,,
null,,156555,HierDy96kzfve8,77dc2ab8m7,ms1000203,iti,,null,img/motor_3.png,68,motor,,,,,,,
374,,156939,HierDy96kzfve8,77dc2ab8m7,ms1000203,motor,,68,img/motor_3.png,68,motor,3,71,1,0,0,,
null,,157048,HierDy96kzfve8,77dc2ab8m7,ms1000203,iti,,null,img/motor_3.png,68,motor,,,,,,,
316,,157375,HierDy96kzfve8,77dc2ab8m7,ms1000203,motor,,83,img/motor_2.png,83,motor,2,72,1,0,0,,
null,,157488,HierDy96kzfve8,77dc2ab8m7,ms1000203,iti,,null,img/motor_2.png,83,motor,,,,,,,
335,,157832,HierDy96kzfve8,77dc2ab8m7,ms1000203,motor,,70,img/motor_4.png,70,motor,4,73,1,0,0,,
null,,157943,HierDy96kzfve8,77dc2ab8m7,ms1000203,iti,,null,img/motor_4.png,70,motor,,,,,,,
482,,158435,HierDy96kzfve8,77dc2ab8m7,ms1000203,motor,,75,img/motor_7.png,75,motor,7,74,1,0,0,,
null,,158546,HierDy96kzfve8,77dc2ab8m7,ms1000203,iti,,null,img/motor_7.png,75,motor,,,,,,,
288,,158846,HierDy96kzfve8,77dc2ab8m7,ms1000203,motor,,75,img/motor_7.png,75,motor,7,75,1,0,0,,
null,,158957,HierDy96kzfve8,77dc2ab8m7,ms1000203,iti,,null,img/motor_7.png,75,motor,,,,,,,
320,,159288,HierDy96kzfve8,77dc2ab8m7,ms1000203,motor,,74,img/motor_6.png,74,motor,6,76,1,0,0,,
null,,159399,HierDy96kzfve8,77dc2ab8m7,ms1000203,iti,,null,img/motor_6.png,74,motor,,,,,,,
580,,159990,HierDy96kzfve8,77dc2ab8m7,ms1000203,motor,,68,img/motor_3.png,68,motor,3,77,1,0,0,,
null,,160100,HierDy96kzfve8,77dc2ab8m7,ms1000203,iti,,null,img/motor_3.png,68,motor,,,,,,,
437,,160547,HierDy96kzfve8,77dc2ab8m7,ms1000203,motor,,83,img/motor_2.png,83,motor,2,78,1,0,0,,
null,,160658,HierDy96kzfve8,77dc2ab8m7,ms1000203,iti,,null,img/motor_2.png,83,motor,,,,,,,
336,,161005,HierDy96kzfve8,77dc2ab8m7,ms1000203,motor,,65,img/motor_1.png,65,motor,1,79,1,0,0,,
null,,161116,HierDy96kzfve8,77dc2ab8m7,ms1000203,iti,,null,img/motor_1.png,65,motor,,,,,,,
444,,161570,HierDy96kzfve8,77dc2ab8m7,ms1000203,motor,,72,img/motor_5.png,72,motor,5,80,1,0,0,,
null,,161681,HierDy96kzfve8,77dc2ab8m7,ms1000203,iti,,null,img/motor_5.png,72,motor,,,,,,,
298,,161989,HierDy96kzfve8,77dc2ab8m7,ms1000203,motor,,74,img/motor_6.png,74,motor,6,81,1,0,0,,
null,,162101,HierDy96kzfve8,77dc2ab8m7,ms1000203,iti,,null,img/motor_6.png,74,motor,,,,,,,
505,,162616,HierDy96kzfve8,77dc2ab8m7,ms1000203,motor,,83,img/motor_2.png,83,motor,2,82,1,0,0,,
null,,162727,HierDy96kzfve8,77dc2ab8m7,ms1000203,iti,,null,img/motor_2.png,83,motor,,,,,,,
502,,163240,HierDy96kzfve8,77dc2ab8m7,ms1000203,motor,,72,img/motor_5.png,72,motor,5,83,1,0,0,,
null,,163350,HierDy96kzfve8,77dc2ab8m7,ms1000203,iti,,null,img/motor_5.png,72,motor,,,,,,,
501,,163862,HierDy96kzfve8,77dc2ab8m7,ms1000203,motor,,65,img/motor_1.png,65,motor,1,84,1,0,0,,
null,,163972,HierDy96kzfve8,77dc2ab8m7,ms1000203,iti,,null,img/motor_1.png,65,motor,,,,,,,
524,,164508,HierDy96kzfve8,77dc2ab8m7,ms1000203,motor,,70,img/motor_4.png,70,motor,4,85,1,0,0,,
null,,164619,HierDy96kzfve8,77dc2ab8m7,ms1000203,iti,,null,img/motor_4.png,70,motor,,,,,,,
337,,164967,HierDy96kzfve8,77dc2ab8m7,ms1000203,motor,,68,img/motor_3.png,68,motor,3,86,1,0,0,,
null,,165078,HierDy96kzfve8,77dc2ab8m7,ms1000203,iti,,null,img/motor_3.png,68,motor,,,,,,,
511,,165599,HierDy96kzfve8,77dc2ab8m7,ms1000203,motor,,75,img/motor_7.png,75,motor,7,87,1,0,0,,
null,,165710,HierDy96kzfve8,77dc2ab8m7,ms1000203,iti,,null,img/motor_7.png,75,motor,,,,,,,
511,,166230,HierDy96kzfve8,77dc2ab8m7,ms1000203,motor,,65,img/motor_1.png,65,motor,1,88,1,0,0,,
null,,166341,HierDy96kzfve8,77dc2ab8m7,ms1000203,iti,,null,img/motor_1.png,65,motor,,,,,,,
442,,166792,HierDy96kzfve8,77dc2ab8m7,ms1000203,motor,,70,img/motor_4.png,70,motor,4,89,1,0,0,,
null,,166903,HierDy96kzfve8,77dc2ab8m7,ms1000203,iti,,null,img/motor_4.png,70,motor,,,,,,,
380,,167294,HierDy96kzfve8,77dc2ab8m7,ms1000203,motor,,65,img/motor_1.png,65,motor,1,90,1,0,0,,
null,,167405,HierDy96kzfve8,77dc2ab8m7,ms1000203,iti,,null,img/motor_1.png,65,motor,,,,,,,
340,,167756,HierDy96kzfve8,77dc2ab8m7,ms1000203,motor,,68,img/motor_3.png,68,motor,3,91,1,0,0,,
null,,167866,HierDy96kzfve8,77dc2ab8m7,ms1000203,iti,,null,img/motor_3.png,68,motor,,,,,,,
281,,168157,HierDy96kzfve8,77dc2ab8m7,ms1000203,motor,,65,img/motor_1.png,65,motor,1,92,1,0,0,,
null,,168268,HierDy96kzfve8,77dc2ab8m7,ms1000203,iti,,null,img/motor_1.png,65,motor,,,,,,,
505,,168785,HierDy96kzfve8,77dc2ab8m7,ms1000203,motor,,76,img/motor_8.png,76,motor,8,93,1,0,0,,
null,,168896,HierDy96kzfve8,77dc2ab8m7,ms1000203,iti,,null,img/motor_8.png,76,motor,,,,,,,
424,,169332,HierDy96kzfve8,77dc2ab8m7,ms1000203,motor,,72,img/motor_5.png,72,motor,5,94,1,0,0,,
null,,169443,HierDy96kzfve8,77dc2ab8m7,ms1000203,iti,,null,img/motor_5.png,72,motor,,,,,,,
422,,169876,HierDy96kzfve8,77dc2ab8m7,ms1000203,motor,,70,img/motor_4.png,70,motor,4,95,1,0,0,,
null,,169987,HierDy96kzfve8,77dc2ab8m7,ms1000203,iti,,null,img/motor_4.png,70,motor,,,,,,,
480,,170477,HierDy96kzfve8,77dc2ab8m7,ms1000203,motor,,75,img/motor_7.png,75,motor,7,96,1,0,0,,
null,,170588,HierDy96kzfve8,77dc2ab8m7,ms1000203,iti,,null,img/motor_7.png,75,motor,,,,,,,
514,,171112,HierDy96kzfve8,77dc2ab8m7,ms1000203,motor,,70,img/motor_4.png,70,motor,4,97,1,0,0,,
null,,171223,HierDy96kzfve8,77dc2ab8m7,ms1000203,iti,,null,img/motor_4.png,70,motor,,,,,,,
317,,171551,HierDy96kzfve8,77dc2ab8m7,ms1000203,motor,,74,img/motor_5.png,72,motor,5,98,0,1,0,,
225,,171787,HierDy96kzfve8,77dc2ab8m7,ms1000203,motorRepeat,,72,img/motor_5.png,72,motor,5,98,1,0,0,,
null,,171898,HierDy96kzfve8,77dc2ab8m7,ms1000203,iti,,null,img/motor_5.png,72,motor,,,,,,,
334,,172243,HierDy96kzfve8,77dc2ab8m7,ms1000203,motor,,76,img/motor_8.png,76,motor,8,99,1,0,0,,
null,,172354,HierDy96kzfve8,77dc2ab8m7,ms1000203,iti,,null,img/motor_8.png,76,motor,,,,,,,
833,,173197,HierDy96kzfve8,77dc2ab8m7,ms1000203,motor,,65,img/motor_1.png,65,motor,1,100,1,0,0,,
null,,173308,HierDy96kzfve8,77dc2ab8m7,ms1000203,iti,,null,img/motor_1.png,65,motor,,,,,,,
396,,173715,HierDy96kzfve8,77dc2ab8m7,ms1000203,motor,,72,img/motor_5.png,72,motor,5,101,1,0,0,,
null,,173827,HierDy96kzfve8,77dc2ab8m7,ms1000203,iti,,null,img/motor_5.png,72,motor,,,,,,,
306,,174143,HierDy96kzfve8,77dc2ab8m7,ms1000203,motor,,76,img/motor_8.png,76,motor,8,102,1,0,0,,
null,,174254,HierDy96kzfve8,77dc2ab8m7,ms1000203,iti,,null,img/motor_8.png,76,motor,,,,,,,
313,,174576,HierDy96kzfve8,77dc2ab8m7,ms1000203,motor,,65,img/motor_1.png,65,motor,1,103,1,0,0,,
null,,174688,HierDy96kzfve8,77dc2ab8m7,ms1000203,iti,,null,img/motor_1.png,65,motor,,,,,,,
327,,175024,HierDy96kzfve8,77dc2ab8m7,ms1000203,motor,,68,img/motor_3.png,68,motor,3,104,1,0,0,,
null,,175135,HierDy96kzfve8,77dc2ab8m7,ms1000203,iti,,null,img/motor_3.png,68,motor,,,,,,,
421,,175566,HierDy96kzfve8,77dc2ab8m7,ms1000203,motor,,65,img/motor_1.png,65,motor,1,105,1,0,0,,
null,,175677,HierDy96kzfve8,77dc2ab8m7,ms1000203,iti,,null,img/motor_1.png,65,motor,,,,,,,
465,,176153,HierDy96kzfve8,77dc2ab8m7,ms1000203,motor,,76,img/motor_8.png,76,motor,8,106,1,0,0,,
null,,176264,HierDy96kzfve8,77dc2ab8m7,ms1000203,iti,,null,img/motor_8.png,76,motor,,,,,,,
502,,176776,HierDy96kzfve8,77dc2ab8m7,ms1000203,motor,,70,img/motor_4.png,70,motor,4,107,1,0,0,,
null,,176888,HierDy96kzfve8,77dc2ab8m7,ms1000203,iti,,null,img/motor_4.png,70,motor,,,,,,,
417,,177314,HierDy96kzfve8,77dc2ab8m7,ms1000203,motor,,68,img/motor_3.png,68,motor,3,108,1,0,0,,
null,,177426,HierDy96kzfve8,77dc2ab8m7,ms1000203,iti,,null,img/motor_3.png,68,motor,,,,,,,
439,,177874,HierDy96kzfve8,77dc2ab8m7,ms1000203,motor,,76,img/motor_6.png,74,motor,6,109,0,1,0,,
222,,178106,HierDy96kzfve8,77dc2ab8m7,ms1000203,motorRepeat,,74,img/motor_6.png,74,motor,6,109,1,0,0,,
null,,178216,HierDy96kzfve8,77dc2ab8m7,ms1000203,iti,,null,img/motor_6.png,74,motor,,,,,,,
462,,178689,HierDy96kzfve8,77dc2ab8m7,ms1000203,motor,,68,img/motor_3.png,68,motor,3,110,1,0,0,,
86,,178800,HierDy96kzfve8,77dc2ab8m7,ms1000203,iti,,70,img/motor_3.png,68,motor,,,,,,,
523,,179333,HierDy96kzfve8,77dc2ab8m7,ms1000203,motor,,74,img/motor_6.png,74,motor,6,111,1,0,0,,
null,,179445,HierDy96kzfve8,77dc2ab8m7,ms1000203,iti,,null,img/motor_6.png,74,motor,,,,,,,
621,,180077,HierDy96kzfve8,77dc2ab8m7,ms1000203,motor,,70,img/motor_4.png,70,motor,4,112,1,0,0,,
null,,180188,HierDy96kzfve8,77dc2ab8m7,ms1000203,iti,,null,img/motor_4.png,70,motor,,,,,,,
468,,180665,HierDy96kzfve8,77dc2ab8m7,ms1000203,motor,,83,img/motor_2.png,83,motor,2,113,1,0,0,,
75,,180776,HierDy96kzfve8,77dc2ab8m7,ms1000203,iti,,65,img/motor_2.png,83,motor,,,,,,,
521,,181307,HierDy96kzfve8,77dc2ab8m7,ms1000203,motor,,72,img/motor_5.png,72,motor,5,114,1,0,0,,
null,,181418,HierDy96kzfve8,77dc2ab8m7,ms1000203,iti,,null,img/motor_5.png,72,motor,,,,,,,
423,,181852,HierDy96kzfve8,77dc2ab8m7,ms1000203,motor,,65,img/motor_2.png,83,motor,2,115,0,1,0,,
310,,182172,HierDy96kzfve8,77dc2ab8m7,ms1000203,motorRepeat,,83,img/motor_2.png,83,motor,2,115,1,0,0,,
null,,182282,HierDy96kzfve8,77dc2ab8m7,ms1000203,iti,,null,img/motor_2.png,83,motor,,,,,,,
391,,182684,HierDy96kzfve8,77dc2ab8m7,ms1000203,motor,,76,img/motor_7.png,75,motor,7,116,0,1,0,,
317,,183010,HierDy96kzfve8,77dc2ab8m7,ms1000203,motorRepeat,,75,img/motor_7.png,75,motor,7,116,1,0,0,,
null,,183121,HierDy96kzfve8,77dc2ab8m7,ms1000203,iti,,null,img/motor_7.png,75,motor,,,,,,,
496,,183629,HierDy96kzfve8,77dc2ab8m7,ms1000203,motor,,74,img/motor_6.png,74,motor,6,117,1,0,0,,
null,,183739,HierDy96kzfve8,77dc2ab8m7,ms1000203,iti,,null,img/motor_6.png,74,motor,,,,,,,
454,,184204,HierDy96kzfve8,77dc2ab8m7,ms1000203,motor,,65,img/motor_1.png,65,motor,1,118,1,0,0,,
null,,184315,HierDy96kzfve8,77dc2ab8m7,ms1000203,iti,,null,img/motor_1.png,65,motor,,,,,,,
537,,184863,HierDy96kzfve8,77dc2ab8m7,ms1000203,motor,,74,img/motor_6.png,74,motor,6,119,1,0,0,,
null,,184973,HierDy96kzfve8,77dc2ab8m7,ms1000203,iti,,null,img/motor_6.png,74,motor,,,,,,,
432,,185416,HierDy96kzfve8,77dc2ab8m7,ms1000203,motor,,65,img/motor_1.png,65,motor,1,120,1,0,0,,
null,,185527,HierDy96kzfve8,77dc2ab8m7,ms1000203,iti,,null,img/motor_1.png,65,motor,,,,,,,
480,,186016,HierDy96kzfve8,77dc2ab8m7,ms1000203,motor,,83,img/motor_2.png,83,motor,2,121,1,0,0,,
null,,186128,HierDy96kzfve8,77dc2ab8m7,ms1000203,iti,,null,img/motor_2.png,83,motor,,,,,,,
417,,186556,HierDy96kzfve8,77dc2ab8m7,ms1000203,motor,,72,img/motor_5.png,72,motor,5,122,1,0,0,,
null,,186668,HierDy96kzfve8,77dc2ab8m7,ms1000203,iti,,null,img/motor_5.png,72,motor,,,,,,,
375,,187052,HierDy96kzfve8,77dc2ab8m7,ms1000203,motor,,76,img/motor_8.png,76,motor,8,123,1,0,0,,
null,,187163,HierDy96kzfve8,77dc2ab8m7,ms1000203,iti,,null,img/motor_8.png,76,motor,,,,,,,
344,,187517,HierDy96kzfve8,77dc2ab8m7,ms1000203,motor,,74,img/motor_6.png,74,motor,6,124,1,0,0,,
null,,187628,HierDy96kzfve8,77dc2ab8m7,ms1000203,iti,,null,img/motor_6.png,74,motor,,,,,,,
323,,187960,HierDy96kzfve8,77dc2ab8m7,ms1000203,motor,,74,img/motor_6.png,74,motor,6,125,1,0,0,,
null,,188071,HierDy96kzfve8,77dc2ab8m7,ms1000203,iti,,null,img/motor_6.png,74,motor,,,,,,,
314,,188396,HierDy96kzfve8,77dc2ab8m7,ms1000203,motor,,75,img/motor_7.png,75,motor,7,126,1,0,0,,
null,,188506,HierDy96kzfve8,77dc2ab8m7,ms1000203,iti,,null,img/motor_7.png,75,motor,,,,,,,
477,,188993,HierDy96kzfve8,77dc2ab8m7,ms1000203,motor,,70,img/motor_4.png,70,motor,4,127,1,0,0,,
null,,189104,HierDy96kzfve8,77dc2ab8m7,ms1000203,iti,,null,img/motor_4.png,70,motor,,,,,,,
388,,189503,HierDy96kzfve8,77dc2ab8m7,ms1000203,motor,,74,img/motor_5.png,72,motor,5,128,0,1,0,,
247,,189761,HierDy96kzfve8,77dc2ab8m7,ms1000203,motorRepeat,,72,img/motor_5.png,72,motor,5,128,1,0,0,,
null,,189872,HierDy96kzfve8,77dc2ab8m7,ms1000203,iti,,null,img/motor_5.png,72,motor,,,,,,,
412,,190293,HierDy96kzfve8,77dc2ab8m7,ms1000203,motor,,65,img/motor_1.png,65,motor,1,129,1,0,0,,
null,,190403,HierDy96kzfve8,77dc2ab8m7,ms1000203,iti,,null,img/motor_1.png,65,motor,,,,,,,
322,,190737,HierDy96kzfve8,77dc2ab8m7,ms1000203,motor,,72,img/motor_5.png,72,motor,5,130,1,0,0,,
null,,190847,HierDy96kzfve8,77dc2ab8m7,ms1000203,iti,,null,img/motor_5.png,72,motor,,,,,,,
496,,191353,HierDy96kzfve8,77dc2ab8m7,ms1000203,motor,,68,img/motor_3.png,68,motor,3,131,1,0,0,,
null,,191465,HierDy96kzfve8,77dc2ab8m7,ms1000203,iti,,null,img/motor_3.png,68,motor,,,,,,,
515,,191991,HierDy96kzfve8,77dc2ab8m7,ms1000203,motor,,74,img/motor_6.png,74,motor,6,132,1,0,0,,
null,,192101,HierDy96kzfve8,77dc2ab8m7,ms1000203,iti,,null,img/motor_6.png,74,motor,,,,,,,
606,,192718,HierDy96kzfve8,77dc2ab8m7,ms1000203,motor,,65,img/motor_2.png,83,motor,2,133,0,1,0,,
270,,192998,HierDy96kzfve8,77dc2ab8m7,ms1000203,motorRepeat,,83,img/motor_2.png,83,motor,2,133,1,0,0,,
null,,193110,HierDy96kzfve8,77dc2ab8m7,ms1000203,iti,,null,img/motor_2.png,83,motor,,,,,,,
435,,193556,HierDy96kzfve8,77dc2ab8m7,ms1000203,motor,,74,img/motor_6.png,74,motor,6,134,1,0,0,,
null,,193667,HierDy96kzfve8,77dc2ab8m7,ms1000203,iti,,null,img/motor_6.png,74,motor,,,,,,,
863,,194540,HierDy96kzfve8,77dc2ab8m7,ms1000203,motor,,68,img/motor_3.png,68,motor,3,135,1,0,0,,
null,,194651,HierDy96kzfve8,77dc2ab8m7,ms1000203,iti,,null,img/motor_3.png,68,motor,,,,,,,
475,,195137,HierDy96kzfve8,77dc2ab8m7,ms1000203,motor,,74,img/motor_6.png,74,motor,6,136,1,0,0,,
null,,195248,HierDy96kzfve8,77dc2ab8m7,ms1000203,iti,,null,img/motor_6.png,74,motor,,,,,,,
554,,195811,HierDy96kzfve8,77dc2ab8m7,ms1000203,motor,,76,img/motor_8.png,76,motor,8,137,1,0,0,,
null,,195922,HierDy96kzfve8,77dc2ab8m7,ms1000203,iti,,null,img/motor_8.png,76,motor,,,,,,,
525,,196458,HierDy96kzfve8,77dc2ab8m7,ms1000203,motor,,65,img/motor_1.png,65,motor,1,138,1,0,0,,
null,,196569,HierDy96kzfve8,77dc2ab8m7,ms1000203,iti,,null,img/motor_1.png,65,motor,,,,,,,
601,,197180,HierDy96kzfve8,77dc2ab8m7,ms1000203,motor,,70,img/motor_4.png,70,motor,4,139,1,0,0,,
null,,197292,HierDy96kzfve8,77dc2ab8m7,ms1000203,iti,,null,img/motor_4.png,70,motor,,,,,,,
94,,197396,HierDy96kzfve8,77dc2ab8m7,ms1000203,motor,,70,img/motor_7.png,75,motor,7,140,0,1,0,,
60,,197467,HierDy96kzfve8,77dc2ab8m7,ms1000203,motorRepeat,,70,img/motor_7.png,75,motor,7,140,0,1,0,,
588,,198064,HierDy96kzfve8,77dc2ab8m7,ms1000203,motorRepeat,,75,img/motor_7.png,75,motor,7,140,1,0,0,,
null,,198176,HierDy96kzfve8,77dc2ab8m7,ms1000203,iti,,null,img/motor_7.png,75,motor,,,,,,,
501,,198687,HierDy96kzfve8,77dc2ab8m7,ms1000203,motor,,74,img/motor_6.png,74,motor,6,141,1,0,0,,
null,,198798,HierDy96kzfve8,77dc2ab8m7,ms1000203,iti,,null,img/motor_6.png,74,motor,,,,,,,
353,,199163,HierDy96kzfve8,77dc2ab8m7,ms1000203,motor,,72,img/motor_5.png,72,motor,5,142,1,0,0,,
null,,199274,HierDy96kzfve8,77dc2ab8m7,ms1000203,iti,,null,img/motor_5.png,72,motor,,,,,,,
352,,199637,HierDy96kzfve8,77dc2ab8m7,ms1000203,motor,,70,img/motor_4.png,70,motor,4,143,1,0,0,,
null,,199749,HierDy96kzfve8,77dc2ab8m7,ms1000203,iti,,null,img/motor_4.png,70,motor,,,,,,,
349,,200107,HierDy96kzfve8,77dc2ab8m7,ms1000203,motor,,76,img/motor_8.png,76,motor,8,144,1,0,0,,
null,,200218,HierDy96kzfve8,77dc2ab8m7,ms1000203,iti,,null,img/motor_8.png,76,motor,,,,,,,
329,,200559,HierDy96kzfve8,77dc2ab8m7,ms1000203,motor,,70,img/motor_3.png,68,motor,3,145,0,1,0,,
169,,200740,HierDy96kzfve8,77dc2ab8m7,ms1000203,motorRepeat,,68,img/motor_3.png,68,motor,3,145,1,0,0,,
null,,200853,HierDy96kzfve8,77dc2ab8m7,ms1000203,iti,,null,img/motor_3.png,68,motor,,,,,,,
334,,201197,HierDy96kzfve8,77dc2ab8m7,ms1000203,motor,,65,img/motor_1.png,65,motor,1,146,1,0,0,,
null,,201309,HierDy96kzfve8,77dc2ab8m7,ms1000203,iti,,null,img/motor_1.png,65,motor,,,,,,,
556,,201875,HierDy96kzfve8,77dc2ab8m7,ms1000203,motor,,75,img/motor_7.png,75,motor,7,147,1,0,0,,
null,,201986,HierDy96kzfve8,77dc2ab8m7,ms1000203,iti,,null,img/motor_7.png,75,motor,,,,,,,
425,,202421,HierDy96kzfve8,77dc2ab8m7,ms1000203,motor,,70,img/motor_4.png,70,motor,4,148,1,0,0,,
null,,202533,HierDy96kzfve8,77dc2ab8m7,ms1000203,iti,,null,img/motor_4.png,70,motor,,,,,,,
299,,202843,HierDy96kzfve8,77dc2ab8m7,ms1000203,motor,,68,img/motor_3.png,68,motor,3,149,1,0,0,,
null,,202954,HierDy96kzfve8,77dc2ab8m7,ms1000203,iti,,null,img/motor_3.png,68,motor,,,,,,,
411,,203376,HierDy96kzfve8,77dc2ab8m7,ms1000203,motor,,70,img/motor_4.png,70,motor,4,150,1,0,0,,
null,,203488,HierDy96kzfve8,77dc2ab8m7,ms1000203,iti,,null,img/motor_4.png,70,motor,,,,,,,
349,,203846,HierDy96kzfve8,77dc2ab8m7,ms1000203,motor,,65,img/motor_2.png,83,motor,2,151,0,1,0,,
186,,204042,HierDy96kzfve8,77dc2ab8m7,ms1000203,motorRepeat,,83,img/motor_2.png,83,motor,2,151,1,0,0,,
null,,204153,HierDy96kzfve8,77dc2ab8m7,ms1000203,iti,,null,img/motor_2.png,83,motor,,,,,,,
488,,204651,HierDy96kzfve8,77dc2ab8m7,ms1000203,motor,,65,img/motor_1.png,65,motor,1,152,1,0,0,,
null,,204762,HierDy96kzfve8,77dc2ab8m7,ms1000203,iti,,null,img/motor_1.png,65,motor,,,,,,,
484,,205256,HierDy96kzfve8,77dc2ab8m7,ms1000203,motor,,76,img/motor_8.png,76,motor,8,153,1,0,0,,
null,,205368,HierDy96kzfve8,77dc2ab8m7,ms1000203,iti,,null,img/motor_8.png,76,motor,,,,,,,
320,,205699,HierDy96kzfve8,77dc2ab8m7,ms1000203,motor,,74,img/motor_6.png,74,motor,6,154,1,0,0,,
null,,205810,HierDy96kzfve8,77dc2ab8m7,ms1000203,iti,,null,img/motor_6.png,74,motor,,,,,,,
329,,206148,HierDy96kzfve8,77dc2ab8m7,ms1000203,motor,,76,img/motor_8.png,76,motor,8,155,1,0,0,,
null,,206259,HierDy96kzfve8,77dc2ab8m7,ms1000203,iti,,null,img/motor_8.png,76,motor,,,,,,,
656,,206924,HierDy96kzfve8,77dc2ab8m7,ms1000203,motor,,70,img/motor_3.png,68,motor,3,156,0,1,0,,
467,,207402,HierDy96kzfve8,77dc2ab8m7,ms1000203,motorRepeat,,68,img/motor_3.png,68,motor,3,156,1,0,0,,
null,,207514,HierDy96kzfve8,77dc2ab8m7,ms1000203,iti,,null,img/motor_3.png,68,motor,,,,,,,
369,,207893,HierDy96kzfve8,77dc2ab8m7,ms1000203,motor,,70,img/motor_4.png,70,motor,4,157,1,0,0,,
null,,208005,HierDy96kzfve8,77dc2ab8m7,ms1000203,iti,,null,img/motor_4.png,70,motor,,,,,,,
452,,208466,HierDy96kzfve8,77dc2ab8m7,ms1000203,motor,,76,img/motor_8.png,76,motor,8,158,1,0,0,,
null,,208578,HierDy96kzfve8,77dc2ab8m7,ms1000203,iti,,null,img/motor_8.png,76,motor,,,,,,,
516,,209104,HierDy96kzfve8,77dc2ab8m7,ms1000203,motor,,83,img/motor_2.png,83,motor,2,159,1,0,0,,
null,,209215,HierDy96kzfve8,77dc2ab8m7,ms1000203,iti,,null,img/motor_2.png,83,motor,,,,,,,
324,,209551,HierDy96kzfve8,77dc2ab8m7,ms1000203,motor,,70,img/motor_4.png,70,motor,4,160,1,0,0,,
null,,209661,HierDy96kzfve8,77dc2ab8m7,ms1000203,iti,,null,img/motor_4.png,70,motor,,,,,,,
437,,210108,HierDy96kzfve8,77dc2ab8m7,ms1000203,motor,,83,img/motor_2.png,83,motor,2,161,1,0,0,,
null,,210219,HierDy96kzfve8,77dc2ab8m7,ms1000203,iti,,null,img/motor_2.png,83,motor,,,,,,,
370,,210601,HierDy96kzfve8,77dc2ab8m7,ms1000203,motor,,83,img/motor_2.png,83,motor,2,162,1,0,0,,
null,,210711,HierDy96kzfve8,77dc2ab8m7,ms1000203,iti,,null,img/motor_2.png,83,motor,,,,,,,
574,,211295,HierDy96kzfve8,77dc2ab8m7,ms1000203,motor,,74,img/motor_6.png,74,motor,6,163,1,0,0,,
null,,211407,HierDy96kzfve8,77dc2ab8m7,ms1000203,iti,,null,img/motor_6.png,74,motor,,,,,,,
400,,211818,HierDy96kzfve8,77dc2ab8m7,ms1000203,motor,,76,img/motor_8.png,76,motor,8,164,1,0,0,,
null,,211930,HierDy96kzfve8,77dc2ab8m7,ms1000203,iti,,null,img/motor_8.png,76,motor,,,,,,,
327,,212266,HierDy96kzfve8,77dc2ab8m7,ms1000203,motor,,74,img/motor_5.png,72,motor,5,165,0,1,0,,
233,,212511,HierDy96kzfve8,77dc2ab8m7,ms1000203,motorRepeat,,72,img/motor_5.png,72,motor,5,165,1,0,0,,
null,,212622,HierDy96kzfve8,77dc2ab8m7,ms1000203,iti,,null,img/motor_5.png,72,motor,,,,,,,
319,,212952,HierDy96kzfve8,77dc2ab8m7,ms1000203,motor,,72,img/motor_5.png,72,motor,5,166,1,0,0,,
null,,213062,HierDy96kzfve8,77dc2ab8m7,ms1000203,iti,,null,img/motor_5.png,72,motor,,,,,,,
281,,213355,HierDy96kzfve8,77dc2ab8m7,ms1000203,motor,,76,img/motor_8.png,76,motor,8,167,1,0,0,,
null,,213467,HierDy96kzfve8,77dc2ab8m7,ms1000203,iti,,null,img/motor_8.png,76,motor,,,,,,,
298,,213776,HierDy96kzfve8,77dc2ab8m7,ms1000203,motor,,72,img/motor_5.png,72,motor,5,168,1,0,0,,
null,,213889,HierDy96kzfve8,77dc2ab8m7,ms1000203,iti,,null,img/motor_5.png,72,motor,,,,,,,
295,,214194,HierDy96kzfve8,77dc2ab8m7,ms1000203,motor,,72,img/motor_5.png,72,motor,5,169,1,0,0,,
null,,214304,HierDy96kzfve8,77dc2ab8m7,ms1000203,iti,,null,img/motor_5.png,72,motor,,,,,,,
365,,214679,HierDy96kzfve8,77dc2ab8m7,ms1000203,motor,,65,img/motor_1.png,65,motor,1,170,1,0,0,,
null,,214790,HierDy96kzfve8,77dc2ab8m7,ms1000203,iti,,null,img/motor_1.png,65,motor,,,,,,,
634,,215434,HierDy96kzfve8,77dc2ab8m7,ms1000203,motor,,75,img/motor_7.png,75,motor,7,171,1,0,0,,
null,,215546,HierDy96kzfve8,77dc2ab8m7,ms1000203,iti,,null,img/motor_7.png,75,motor,,,,,,,
518,,216074,HierDy96kzfve8,77dc2ab8m7,ms1000203,motor,,83,img/motor_2.png,83,motor,2,172,1,0,0,,
null,,216186,HierDy96kzfve8,77dc2ab8m7,ms1000203,iti,,null,img/motor_2.png,83,motor,,,,,,,
532,,216728,HierDy96kzfve8,77dc2ab8m7,ms1000203,motor,,68,img/motor_3.png,68,motor,3,173,1,0,0,,
null,,216840,HierDy96kzfve8,77dc2ab8m7,ms1000203,iti,,null,img/motor_3.png,68,motor,,,,,,,
449,,217299,HierDy96kzfve8,77dc2ab8m7,ms1000203,motor,,68,img/motor_3.png,68,motor,3,174,1,0,0,,
null,,217411,HierDy96kzfve8,77dc2ab8m7,ms1000203,iti,,null,img/motor_3.png,68,motor,,,,,,,
435,,217858,HierDy96kzfve8,77dc2ab8m7,ms1000203,motor,,76,img/motor_8.png,76,motor,8,175,1,0,0,,
null,,217968,HierDy96kzfve8,77dc2ab8m7,ms1000203,iti,,null,img/motor_8.png,76,motor,,,,,,,
316,,218294,HierDy96kzfve8,77dc2ab8m7,ms1000203,motor,,76,img/motor_8.png,76,motor,8,176,1,0,0,,
null,,218405,HierDy96kzfve8,77dc2ab8m7,ms1000203,iti,,null,img/motor_8.png,76,motor,,,,,,,
416,,218833,HierDy96kzfve8,77dc2ab8m7,ms1000203,motor,,75,img/motor_7.png,75,motor,7,177,1,0,0,,
null,,218945,HierDy96kzfve8,77dc2ab8m7,ms1000203,iti,,null,img/motor_7.png,75,motor,,,,,,,
513,,219468,HierDy96kzfve8,77dc2ab8m7,ms1000203,motor,,70,img/motor_4.png,70,motor,4,178,1,0,0,,
null,,219578,HierDy96kzfve8,77dc2ab8m7,ms1000203,iti,,null,img/motor_4.png,70,motor,,,,,,,
313,,219902,HierDy96kzfve8,77dc2ab8m7,ms1000203,motor,,75,img/motor_8.png,76,motor,8,179,0,1,0,,
242,,220155,HierDy96kzfve8,77dc2ab8m7,ms1000203,motorRepeat,,76,img/motor_8.png,76,motor,8,179,1,0,0,,
null,,220267,HierDy96kzfve8,77dc2ab8m7,ms1000203,iti,,null,img/motor_8.png,76,motor,,,,,,,
511,,220787,HierDy96kzfve8,77dc2ab8m7,ms1000203,motor,,83,img/motor_3.png,68,motor,3,180,0,1,0,,
326,,221124,HierDy96kzfve8,77dc2ab8m7,ms1000203,motorRepeat,,68,img/motor_3.png,68,motor,3,180,1,0,0,,
null,,221235,HierDy96kzfve8,77dc2ab8m7,ms1000203,iti,,null,img/motor_3.png,68,motor,,,,,,,
773,,222019,HierDy96kzfve8,77dc2ab8m7,ms1000203,motor,,75,img/motor_7.png,75,motor,7,181,1,0,0,,
null,,222131,HierDy96kzfve8,77dc2ab8m7,ms1000203,iti,,null,img/motor_7.png,75,motor,,,,,,,
420,,222560,HierDy96kzfve8,77dc2ab8m7,ms1000203,motor,,74,img/motor_5.png,72,motor,5,182,0,1,0,,
345,,222916,HierDy96kzfve8,77dc2ab8m7,ms1000203,motorRepeat,,72,img/motor_5.png,72,motor,5,182,1,0,0,,
null,,223027,HierDy96kzfve8,77dc2ab8m7,ms1000203,iti,,null,img/motor_5.png,72,motor,,,,,,,
316,,223353,HierDy96kzfve8,77dc2ab8m7,ms1000203,motor,,72,img/motor_5.png,72,motor,5,183,1,0,0,,
null,,223464,HierDy96kzfve8,77dc2ab8m7,ms1000203,iti,,null,img/motor_5.png,72,motor,,,,,,,
396,,223871,HierDy96kzfve8,77dc2ab8m7,ms1000203,motor,,65,img/motor_1.png,65,motor,1,184,1,0,0,,
null,,223983,HierDy96kzfve8,77dc2ab8m7,ms1000203,iti,,null,img/motor_1.png,65,motor,,,,,,,
386,,224379,HierDy96kzfve8,77dc2ab8m7,ms1000203,motor,,76,img/motor_7.png,75,motor,7,185,0,1,0,,
125,,224513,HierDy96kzfve8,77dc2ab8m7,ms1000203,motorRepeat,,75,img/motor_7.png,75,motor,7,185,1,0,0,,
null,,224624,HierDy96kzfve8,77dc2ab8m7,ms1000203,iti,,null,img/motor_7.png,75,motor,,,,,,,
499,,225134,HierDy96kzfve8,77dc2ab8m7,ms1000203,motor,,68,img/motor_3.png,68,motor,3,186,1,0,0,,
null,,225246,HierDy96kzfve8,77dc2ab8m7,ms1000203,iti,,null,img/motor_3.png,68,motor,,,,,,,
426,,225682,HierDy96kzfve8,77dc2ab8m7,ms1000203,motor,,76,img/motor_8.png,76,motor,8,187,1,0,0,,
null,,225793,HierDy96kzfve8,77dc2ab8m7,ms1000203,iti,,null,img/motor_8.png,76,motor,,,,,,,
348,,226150,HierDy96kzfve8,77dc2ab8m7,ms1000203,motor,,70,img/motor_4.png,70,motor,4,188,1,0,0,,
null,,226262,HierDy96kzfve8,77dc2ab8m7,ms1000203,iti,,null,img/motor_4.png,70,motor,,,,,,,
384,,226656,HierDy96kzfve8,77dc2ab8m7,ms1000203,motor,,75,img/motor_7.png,75,motor,7,189,1,0,0,,
null,,226766,HierDy96kzfve8,77dc2ab8m7,ms1000203,iti,,null,img/motor_7.png,75,motor,,,,,,,
451,,227229,HierDy96kzfve8,77dc2ab8m7,ms1000203,motor,,65,img/motor_2.png,83,motor,2,190,0,1,0,,
64,,227303,HierDy96kzfve8,77dc2ab8m7,ms1000203,motorRepeat,,83,img/motor_2.png,83,motor,2,190,1,0,0,,
null,,227414,HierDy96kzfve8,77dc2ab8m7,ms1000203,iti,,null,img/motor_2.png,83,motor,,,,,,,
417,,227841,HierDy96kzfve8,77dc2ab8m7,ms1000203,motor,,76,img/motor_8.png,76,motor,8,191,1,0,0,,
null,,227952,HierDy96kzfve8,77dc2ab8m7,ms1000203,iti,,null,img/motor_8.png,76,motor,,,,,,,
449,,228413,HierDy96kzfve8,77dc2ab8m7,ms1000203,motor,,70,img/motor_4.png,70,motor,4,192,1,0,0,,
null,,228524,HierDy96kzfve8,77dc2ab8m7,ms1000203,iti,,null,img/motor_4.png,70,motor,,,,,,,
385,,228920,HierDy96kzfve8,77dc2ab8m7,ms1000203,motor,,68,img/motor_3.png,68,motor,3,193,1,0,0,,
null,,229032,HierDy96kzfve8,77dc2ab8m7,ms1000203,iti,,null,img/motor_3.png,68,motor,,,,,,,
450,,229492,HierDy96kzfve8,77dc2ab8m7,ms1000203,motor,,75,img/motor_7.png,75,motor,7,194,1,0,0,,
null,,229603,HierDy96kzfve8,77dc2ab8m7,ms1000203,iti,,null,img/motor_7.png,75,motor,,,,,,,
472,,230085,HierDy96kzfve8,77dc2ab8m7,ms1000203,motor,,83,img/motor_2.png,83,motor,2,195,1,0,0,,
null,,230196,HierDy96kzfve8,77dc2ab8m7,ms1000203,iti,,null,img/motor_2.png,83,motor,,,,,,,
282,,230488,HierDy96kzfve8,77dc2ab8m7,ms1000203,motor,,83,img/motor_1.png,65,motor,1,196,0,1,0,,
328,,230826,HierDy96kzfve8,77dc2ab8m7,ms1000203,motorRepeat,,65,img/motor_1.png,65,motor,1,196,1,0,0,,
null,,230936,HierDy96kzfve8,77dc2ab8m7,ms1000203,iti,,null,img/motor_1.png,65,motor,,,,,,,
444,,231390,HierDy96kzfve8,77dc2ab8m7,ms1000203,motor,,75,img/motor_7.png,75,motor,7,197,1,0,0,,
null,,231502,HierDy96kzfve8,77dc2ab8m7,ms1000203,iti,,null,img/motor_7.png,75,motor,,,,,,,
339,,231851,HierDy96kzfve8,77dc2ab8m7,ms1000203,motor,,72,img/motor_5.png,72,motor,5,198,1,0,0,,
null,,231962,HierDy96kzfve8,77dc2ab8m7,ms1000203,iti,,null,img/motor_5.png,72,motor,,,,,,,
421,,232393,HierDy96kzfve8,77dc2ab8m7,ms1000203,motor,,68,img/motor_2.png,83,motor,2,199,0,1,0,,
242,,232647,HierDy96kzfve8,77dc2ab8m7,ms1000203,motorRepeat,,83,img/motor_2.png,83,motor,2,199,1,0,0,,
null,,232759,HierDy96kzfve8,77dc2ab8m7,ms1000203,iti,,null,img/motor_2.png,83,motor,,,,,,,
399,,233168,HierDy96kzfve8,77dc2ab8m7,ms1000203,motor,,76,img/motor_8.png,76,motor,8,200,1,0,0,,
null,,233279,HierDy96kzfve8,77dc2ab8m7,ms1000203,iti,,null,img/motor_8.png,76,motor,,,,,,,
401,,233690,HierDy96kzfve8,77dc2ab8m7,ms1000203,motor,,75,img/motor_6.png,74,motor,6,201,0,1,0,,
245,,233946,HierDy96kzfve8,77dc2ab8m7,ms1000203,motorRepeat,,74,img/motor_6.png,74,motor,6,201,1,0,0,,
null,,234056,HierDy96kzfve8,77dc2ab8m7,ms1000203,iti,,null,img/motor_6.png,74,motor,,,,,,,
340,,234407,HierDy96kzfve8,77dc2ab8m7,ms1000203,motor,,76,img/motor_8.png,76,motor,8,202,1,0,0,,
null,,234517,HierDy96kzfve8,77dc2ab8m7,ms1000203,iti,,null,img/motor_8.png,76,motor,,,,,,,
346,,234873,HierDy96kzfve8,77dc2ab8m7,ms1000203,motor,,76,img/motor_8.png,76,motor,8,203,1,0,0,,
null,,234984,HierDy96kzfve8,77dc2ab8m7,ms1000203,iti,,null,img/motor_8.png,76,motor,,,,,,,
500,,235493,HierDy96kzfve8,77dc2ab8m7,ms1000203,motor,,68,img/motor_3.png,68,motor,3,204,1,0,0,,
null,,235605,HierDy96kzfve8,77dc2ab8m7,ms1000203,iti,,null,img/motor_3.png,68,motor,,,,,,,
358,,235973,HierDy96kzfve8,77dc2ab8m7,ms1000203,motor,,76,img/motor_8.png,76,motor,8,205,1,0,0,,
null,,236083,HierDy96kzfve8,77dc2ab8m7,ms1000203,iti,,null,img/motor_8.png,76,motor,,,,,,,
475,,236569,HierDy96kzfve8,77dc2ab8m7,ms1000203,motor,,70,img/motor_4.png,70,motor,4,206,1,0,0,,
null,,236680,HierDy96kzfve8,77dc2ab8m7,ms1000203,iti,,null,img/motor_4.png,70,motor,,,,,,,
366,,237056,HierDy96kzfve8,77dc2ab8m7,ms1000203,motor,,65,img/motor_1.png,65,motor,1,207,1,0,0,,
null,,237168,HierDy96kzfve8,77dc2ab8m7,ms1000203,iti,,null,img/motor_1.png,65,motor,,,,,,,
365,,237543,HierDy96kzfve8,77dc2ab8m7,ms1000203,motor,,76,img/motor_8.png,76,motor,8,208,1,0,0,,
null,,237653,HierDy96kzfve8,77dc2ab8m7,ms1000203,iti,,null,img/motor_8.png,76,motor,,,,,,,
437,,238102,HierDy96kzfve8,77dc2ab8m7,ms1000203,motor,,72,img/motor_5.png,72,motor,5,209,1,0,0,,
null,,238212,HierDy96kzfve8,77dc2ab8m7,ms1000203,iti,,null,img/motor_5.png,72,motor,,,,,,,
415,,238637,HierDy96kzfve8,77dc2ab8m7,ms1000203,motor,,65,img/motor_1.png,65,motor,1,210,1,0,0,,
null,,238749,HierDy96kzfve8,77dc2ab8m7,ms1000203,iti,,null,img/motor_1.png,65,motor,,,,,,,
369,,239127,HierDy96kzfve8,77dc2ab8m7,ms1000203,motor,,65,img/motor_1.png,65,motor,1,211,1,0,0,,
null,,239239,HierDy96kzfve8,77dc2ab8m7,ms1000203,iti,,null,img/motor_1.png,65,motor,,,,,,,
530,,239779,HierDy96kzfve8,77dc2ab8m7,ms1000203,motor,,75,img/motor_7.png,75,motor,7,212,1,0,0,,
null,,239891,HierDy96kzfve8,77dc2ab8m7,ms1000203,iti,,null,img/motor_7.png,75,motor,,,,,,,
339,,240239,HierDy96kzfve8,77dc2ab8m7,ms1000203,motor,,75,img/motor_7.png,75,motor,7,213,1,0,0,,
null,,240350,HierDy96kzfve8,77dc2ab8m7,ms1000203,iti,,null,img/motor_7.png,75,motor,,,,,,,
477,,240837,HierDy96kzfve8,77dc2ab8m7,ms1000203,motor,,72,img/motor_5.png,72,motor,5,214,1,0,0,,
null,,240948,HierDy96kzfve8,77dc2ab8m7,ms1000203,iti,,null,img/motor_5.png,72,motor,,,,,,,
628,,241587,HierDy96kzfve8,77dc2ab8m7,ms1000203,motor,,75,img/motor_7.png,75,motor,7,215,1,0,0,,
null,,241697,HierDy96kzfve8,77dc2ab8m7,ms1000203,iti,,null,img/motor_7.png,75,motor,,,,,,,
510,,242218,HierDy96kzfve8,77dc2ab8m7,ms1000203,motor,,83,img/motor_2.png,83,motor,2,216,1,0,0,,
null,,242329,HierDy96kzfve8,77dc2ab8m7,ms1000203,iti,,null,img/motor_2.png,83,motor,,,,,,,
379,,242718,HierDy96kzfve8,77dc2ab8m7,ms1000203,motor,,72,img/motor_5.png,72,motor,5,217,1,0,0,,
null,,242829,HierDy96kzfve8,77dc2ab8m7,ms1000203,iti,,null,img/motor_5.png,72,motor,,,,,,,
371,,243211,HierDy96kzfve8,77dc2ab8m7,ms1000203,motor,,75,img/motor_7.png,75,motor,7,218,1,0,0,,
null,,243323,HierDy96kzfve8,77dc2ab8m7,ms1000203,iti,,null,img/motor_7.png,75,motor,,,,,,,
319,,243653,HierDy96kzfve8,77dc2ab8m7,ms1000203,motor,,75,img/motor_7.png,75,motor,7,219,1,0,0,,
null,,243765,HierDy96kzfve8,77dc2ab8m7,ms1000203,iti,,null,img/motor_7.png,75,motor,,,,,,,
565,,244339,HierDy96kzfve8,77dc2ab8m7,ms1000203,motor,,68,img/motor_3.png,68,motor,3,220,1,0,0,,
null,,244451,HierDy96kzfve8,77dc2ab8m7,ms1000203,iti,,null,img/motor_3.png,68,motor,,,,,,,
61,,244521,HierDy96kzfve8,77dc2ab8m7,ms1000203,motor,,68,img/motor_5.png,72,motor,5,221,0,1,0,,
378,,244911,HierDy96kzfve8,77dc2ab8m7,ms1000203,motorRepeat,,72,img/motor_5.png,72,motor,5,221,1,0,0,,
null,,245022,HierDy96kzfve8,77dc2ab8m7,ms1000203,iti,,null,img/motor_5.png,72,motor,,,,,,,
463,,245494,HierDy96kzfve8,77dc2ab8m7,ms1000203,motor,,83,img/motor_2.png,83,motor,2,222,1,0,0,,
null,,245604,HierDy96kzfve8,77dc2ab8m7,ms1000203,iti,,null,img/motor_2.png,83,motor,,,,,,,
358,,245971,HierDy96kzfve8,77dc2ab8m7,ms1000203,motor,,83,img/motor_2.png,83,motor,2,223,1,0,0,,
null,,246082,HierDy96kzfve8,77dc2ab8m7,ms1000203,iti,,null,img/motor_2.png,83,motor,,,,,,,
458,,246550,HierDy96kzfve8,77dc2ab8m7,ms1000203,motor,,72,img/motor_5.png,72,motor,5,224,1,0,0,,
null,,246661,HierDy96kzfve8,77dc2ab8m7,ms1000203,iti,,null,img/motor_5.png,72,motor,,,,,,,
324,,246997,HierDy96kzfve8,77dc2ab8m7,ms1000203,motor,,72,img/motor_5.png,72,motor,5,225,1,0,0,,
null,,247107,HierDy96kzfve8,77dc2ab8m7,ms1000203,iti,,null,img/motor_5.png,72,motor,,,,,,,
426,,247544,HierDy96kzfve8,77dc2ab8m7,ms1000203,motor,,72,img/motor_4.png,70,motor,4,226,0,1,0,,
89,,247644,HierDy96kzfve8,77dc2ab8m7,ms1000203,motorRepeat,,70,img/motor_4.png,70,motor,4,226,1,0,0,,
null,,247754,HierDy96kzfve8,77dc2ab8m7,ms1000203,iti,,null,img/motor_4.png,70,motor,,,,,,,
496,,248261,HierDy96kzfve8,77dc2ab8m7,ms1000203,motor,,75,img/motor_7.png,75,motor,7,227,1,0,0,,
null,,248372,HierDy96kzfve8,77dc2ab8m7,ms1000203,iti,,null,img/motor_7.png,75,motor,,,,,,,
367,,248749,HierDy96kzfve8,77dc2ab8m7,ms1000203,motor,,72,img/motor_5.png,72,motor,5,228,1,0,0,,
null,,248860,HierDy96kzfve8,77dc2ab8m7,ms1000203,iti,,null,img/motor_5.png,72,motor,,,,,,,
298,,249168,HierDy96kzfve8,77dc2ab8m7,ms1000203,motor,,72,img/motor_5.png,72,motor,5,229,1,0,0,,
null,,249279,HierDy96kzfve8,77dc2ab8m7,ms1000203,iti,,null,img/motor_5.png,72,motor,,,,,,,
451,,249741,HierDy96kzfve8,77dc2ab8m7,ms1000203,motor,,74,img/motor_6.png,74,motor,6,230,1,0,0,,
null,,249852,HierDy96kzfve8,77dc2ab8m7,ms1000203,iti,,null,img/motor_6.png,74,motor,,,,,,,
416,,250278,HierDy96kzfve8,77dc2ab8m7,ms1000203,motor,,70,img/motor_4.png,70,motor,4,231,1,0,0,,
null,,250389,HierDy96kzfve8,77dc2ab8m7,ms1000203,iti,,null,img/motor_4.png,70,motor,,,,,,,
427,,250827,HierDy96kzfve8,77dc2ab8m7,ms1000203,motor,,76,img/motor_8.png,76,motor,8,232,1,0,0,,
null,,250938,HierDy96kzfve8,77dc2ab8m7,ms1000203,iti,,null,img/motor_8.png,76,motor,,,,,,,
349,,251298,HierDy96kzfve8,77dc2ab8m7,ms1000203,motor,,76,img/motor_8.png,76,motor,8,233,1,0,0,,
null,,251408,HierDy96kzfve8,77dc2ab8m7,ms1000203,iti,,null,img/motor_8.png,76,motor,,,,,,,
400,,251819,HierDy96kzfve8,77dc2ab8m7,ms1000203,motor,,74,img/motor_6.png,74,motor,6,234,1,0,0,,
null,,251929,HierDy96kzfve8,77dc2ab8m7,ms1000203,iti,,null,img/motor_6.png,74,motor,,,,,,,
447,,252387,HierDy96kzfve8,77dc2ab8m7,ms1000203,motor,,70,img/motor_4.png,70,motor,4,235,1,0,0,,
null,,252498,HierDy96kzfve8,77dc2ab8m7,ms1000203,iti,,null,img/motor_4.png,70,motor,,,,,,,
362,,252869,HierDy96kzfve8,77dc2ab8m7,ms1000203,motor,,76,img/motor_8.png,76,motor,8,236,1,0,0,,
null,,252980,HierDy96kzfve8,77dc2ab8m7,ms1000203,iti,,null,img/motor_8.png,76,motor,,,,,,,
375,,253367,HierDy96kzfve8,77dc2ab8m7,ms1000203,motor,,70,img/motor_4.png,70,motor,4,237,1,0,0,,
null,,253478,HierDy96kzfve8,77dc2ab8m7,ms1000203,iti,,null,img/motor_4.png,70,motor,,,,,,,
430,,253917,HierDy96kzfve8,77dc2ab8m7,ms1000203,motor,,83,img/motor_2.png,83,motor,2,238,1,0,0,,
null,,254028,HierDy96kzfve8,77dc2ab8m7,ms1000203,iti,,null,img/motor_2.png,83,motor,,,,,,,
356,,254395,HierDy96kzfve8,77dc2ab8m7,ms1000203,motor,,70,img/motor_4.png,70,motor,4,239,1,0,0,,
null,,254506,HierDy96kzfve8,77dc2ab8m7,ms1000203,iti,,null,img/motor_4.png,70,motor,,,,,,,
442,,254959,HierDy96kzfve8,77dc2ab8m7,ms1000203,motor,,75,img/motor_7.png,75,motor,7,240,1,0,0,,
null,,255071,HierDy96kzfve8,77dc2ab8m7,ms1000203,iti,,null,img/motor_7.png,75,motor,,,,,,,
354,,255435,HierDy96kzfve8,77dc2ab8m7,ms1000203,motor,,72,img/motor_6.png,74,motor,6,241,0,1,0,,
235,,255683,HierDy96kzfve8,77dc2ab8m7,ms1000203,motorRepeat,,74,img/motor_6.png,74,motor,6,241,1,0,0,,
null,,255793,HierDy96kzfve8,77dc2ab8m7,ms1000203,iti,,null,img/motor_6.png,74,motor,,,,,,,
383,,256187,HierDy96kzfve8,77dc2ab8m7,ms1000203,motor,,75,img/motor_7.png,75,motor,7,242,1,0,0,,
null,,256298,HierDy96kzfve8,77dc2ab8m7,ms1000203,iti,,null,img/motor_7.png,75,motor,,,,,,,
353,,256660,HierDy96kzfve8,77dc2ab8m7,ms1000203,motor,,70,img/motor_2.png,83,motor,2,243,0,1,0,,
215,,256885,HierDy96kzfve8,77dc2ab8m7,ms1000203,motorRepeat,,83,img/motor_2.png,83,motor,2,243,1,0,0,,
null,,256997,HierDy96kzfve8,77dc2ab8m7,ms1000203,iti,,null,img/motor_2.png,83,motor,,,,,,,
364,,257372,HierDy96kzfve8,77dc2ab8m7,ms1000203,motor,,75,img/motor_7.png,75,motor,7,244,1,0,0,,
null,,257483,HierDy96kzfve8,77dc2ab8m7,ms1000203,iti,,null,img/motor_7.png,75,motor,,,,,,,
375,,257869,HierDy96kzfve8,77dc2ab8m7,ms1000203,motor,,72,img/motor_5.png,72,motor,5,245,1,0,0,,
null,,257981,HierDy96kzfve8,77dc2ab8m7,ms1000203,iti,,null,img/motor_5.png,72,motor,,,,,,,
434,,258424,HierDy96kzfve8,77dc2ab8m7,ms1000203,motor,,70,img/motor_4.png,70,motor,4,246,1,0,0,,
null,,258536,HierDy96kzfve8,77dc2ab8m7,ms1000203,iti,,null,img/motor_4.png,70,motor,,,,,,,
512,,259059,HierDy96kzfve8,77dc2ab8m7,ms1000203,motor,,72,img/motor_5.png,72,motor,5,247,1,0,0,,
null,,259171,HierDy96kzfve8,77dc2ab8m7,ms1000203,iti,,null,img/motor_5.png,72,motor,,,,,,,
503,,259685,HierDy96kzfve8,77dc2ab8m7,ms1000203,motor,,83,img/motor_2.png,83,motor,2,248,1,0,0,,
null,,259795,HierDy96kzfve8,77dc2ab8m7,ms1000203,iti,,null,img/motor_2.png,83,motor,,,,,,,
414,,260221,HierDy96kzfve8,77dc2ab8m7,ms1000203,motor,,76,img/motor_7.png,75,motor,7,249,0,1,0,,
266,,260498,HierDy96kzfve8,77dc2ab8m7,ms1000203,motorRepeat,,75,img/motor_7.png,75,motor,7,249,1,0,0,,
null,,260609,HierDy96kzfve8,77dc2ab8m7,ms1000203,iti,,null,img/motor_7.png,75,motor,,,,,,,
730,,261349,HierDy96kzfve8,77dc2ab8m7,ms1000203,motor,,68,img/motor_3.png,68,motor,3,250,1,0,0,,
null,,261460,HierDy96kzfve8,77dc2ab8m7,ms1000203,iti,,null,img/motor_3.png,68,motor,,,,,,,
488,,261958,HierDy96kzfve8,77dc2ab8m7,ms1000203,motor,,65,img/motor_1.png,65,motor,1,251,1,0,0,,
null,,262068,HierDy96kzfve8,77dc2ab8m7,ms1000203,iti,,null,img/motor_1.png,65,motor,,,,,,,
473,,262550,HierDy96kzfve8,77dc2ab8m7,ms1000203,motor,,83,img/motor_2.png,83,motor,2,252,1,0,0,,
null,,262662,HierDy96kzfve8,77dc2ab8m7,ms1000203,iti,,null,img/motor_2.png,83,motor,,,,,,,
371,,263042,HierDy96kzfve8,77dc2ab8m7,ms1000203,motor,,70,img/motor_4.png,70,motor,4,253,1,0,0,,
null,,263155,HierDy96kzfve8,77dc2ab8m7,ms1000203,iti,,null,img/motor_4.png,70,motor,,,,,,,
311,,263476,HierDy96kzfve8,77dc2ab8m7,ms1000203,motor,,70,img/motor_4.png,70,motor,4,254,1,0,0,,
null,,263587,HierDy96kzfve8,77dc2ab8m7,ms1000203,iti,,null,img/motor_4.png,70,motor,,,,,,,
364,,263961,HierDy96kzfve8,77dc2ab8m7,ms1000203,motor,,83,img/motor_2.png,83,motor,2,255,1,0,0,,
null,,264073,HierDy96kzfve8,77dc2ab8m7,ms1000203,iti,,null,img/motor_2.png,83,motor,,,,,,,
391,,264476,HierDy96kzfve8,77dc2ab8m7,ms1000203,motor,,75,img/motor_7.png,75,motor,7,256,1,0,0,,
null,,264586,HierDy96kzfve8,77dc2ab8m7,ms1000203,iti,,null,img/motor_7.png,75,motor,,,,,,,
404,,265001,HierDy96kzfve8,77dc2ab8m7,ms1000203,motor,,70,img/motor_3.png,68,motor,3,257,0,1,0,,
187,,265198,HierDy96kzfve8,77dc2ab8m7,ms1000203,motorRepeat,,68,img/motor_3.png,68,motor,3,257,1,0,0,,
null,,265310,HierDy96kzfve8,77dc2ab8m7,ms1000203,iti,,null,img/motor_3.png,68,motor,,,,,,,
562,,265882,HierDy96kzfve8,77dc2ab8m7,ms1000203,motor,,72,img/motor_5.png,72,motor,5,258,1,0,0,,
null,,265993,HierDy96kzfve8,77dc2ab8m7,ms1000203,iti,,null,img/motor_5.png,72,motor,,,,,,,
363,,266366,HierDy96kzfve8,77dc2ab8m7,ms1000203,motor,,70,img/motor_4.png,70,motor,4,259,1,0,0,,
null,,266478,HierDy96kzfve8,77dc2ab8m7,ms1000203,iti,,null,img/motor_4.png,70,motor,,,,,,,
367,,266855,HierDy96kzfve8,77dc2ab8m7,ms1000203,motor,,68,img/motor_3.png,68,motor,3,260,1,0,0,,
null,,266967,HierDy96kzfve8,77dc2ab8m7,ms1000203,iti,,null,img/motor_3.png,68,motor,,,,,,,
439,,267417,HierDy96kzfve8,77dc2ab8m7,ms1000203,motor,,75,img/motor_7.png,75,motor,7,261,1,0,0,,
null,,267528,HierDy96kzfve8,77dc2ab8m7,ms1000203,iti,,null,img/motor_7.png,75,motor,,,,,,,
554,,268094,HierDy96kzfve8,77dc2ab8m7,ms1000203,motor,,65,img/motor_1.png,65,motor,1,262,1,0,0,,
null,,268205,HierDy96kzfve8,77dc2ab8m7,ms1000203,iti,,null,img/motor_1.png,65,motor,,,,,,,
471,,268686,HierDy96kzfve8,77dc2ab8m7,ms1000203,motor,,76,img/motor_8.png,76,motor,8,263,1,0,0,,
null,,268798,HierDy96kzfve8,77dc2ab8m7,ms1000203,iti,,null,img/motor_8.png,76,motor,,,,,,,
502,,269309,HierDy96kzfve8,77dc2ab8m7,ms1000203,motor,,68,img/motor_3.png,68,motor,3,264,1,0,0,,
null,,269420,HierDy96kzfve8,77dc2ab8m7,ms1000203,iti,,null,img/motor_3.png,68,motor,,,,,,,
471,,269902,HierDy96kzfve8,77dc2ab8m7,ms1000203,motor,,75,img/motor_7.png,75,motor,7,265,1,0,0,,
null,,270013,HierDy96kzfve8,77dc2ab8m7,ms1000203,iti,,null,img/motor_7.png,75,motor,,,,,,,
315,,270338,HierDy96kzfve8,77dc2ab8m7,ms1000203,motor,,75,img/motor_7.png,75,motor,7,266,1,0,0,,
null,,270448,HierDy96kzfve8,77dc2ab8m7,ms1000203,iti,,null,img/motor_7.png,75,motor,,,,,,,
450,,270909,HierDy96kzfve8,77dc2ab8m7,ms1000203,motor,,70,img/motor_4.png,70,motor,4,267,1,0,0,,
null,,271021,HierDy96kzfve8,77dc2ab8m7,ms1000203,iti,,null,img/motor_4.png,70,motor,,,,,,,
421,,271452,HierDy96kzfve8,77dc2ab8m7,ms1000203,motor,,74,img/motor_6.png,74,motor,6,268,1,0,0,,
null,,271564,HierDy96kzfve8,77dc2ab8m7,ms1000203,iti,,null,img/motor_6.png,74,motor,,,,,,,
408,,271983,HierDy96kzfve8,77dc2ab8m7,ms1000203,motor,,65,img/motor_1.png,65,motor,1,269,1,0,0,,
null,,272096,HierDy96kzfve8,77dc2ab8m7,ms1000203,iti,,null,img/motor_1.png,65,motor,,,,,,,
470,,272576,HierDy96kzfve8,77dc2ab8m7,ms1000203,motor,,83,img/motor_2.png,83,motor,2,270,1,0,0,,
null,,272688,HierDy96kzfve8,77dc2ab8m7,ms1000203,iti,,null,img/motor_2.png,83,motor,,,,,,,
522,,273219,HierDy96kzfve8,77dc2ab8m7,ms1000203,motor,,76,img/motor_7.png,75,motor,7,271,0,1,0,,
69,,273299,HierDy96kzfve8,77dc2ab8m7,ms1000203,motorRepeat,,75,img/motor_7.png,75,motor,7,271,1,0,0,,
null,,273410,HierDy96kzfve8,77dc2ab8m7,ms1000203,iti,,null,img/motor_7.png,75,motor,,,,,,,
625,,274046,HierDy96kzfve8,77dc2ab8m7,ms1000203,motor,,68,img/motor_3.png,68,motor,3,272,1,0,0,,
null,,274158,HierDy96kzfve8,77dc2ab8m7,ms1000203,iti,,null,img/motor_3.png,68,motor,,,,,,,
416,,274586,HierDy96kzfve8,77dc2ab8m7,ms1000203,motor,,83,img/motor_2.png,83,motor,2,273,1,0,0,,
null,,274696,HierDy96kzfve8,77dc2ab8m7,ms1000203,iti,,null,img/motor_2.png,83,motor,,,,,,,
502,,275207,HierDy96kzfve8,77dc2ab8m7,ms1000203,motor,,74,img/motor_6.png,74,motor,6,274,1,0,0,,
null,,275319,HierDy96kzfve8,77dc2ab8m7,ms1000203,iti,,null,img/motor_6.png,74,motor,,,,,,,
430,,275758,HierDy96kzfve8,77dc2ab8m7,ms1000203,motor,,70,img/motor_4.png,70,motor,4,275,1,0,0,,
null,,275870,HierDy96kzfve8,77dc2ab8m7,ms1000203,iti,,null,img/motor_4.png,70,motor,,,,,,,
586,,276466,HierDy96kzfve8,77dc2ab8m7,ms1000203,motor,,83,img/motor_2.png,83,motor,2,276,1,0,0,,
null,,276577,HierDy96kzfve8,77dc2ab8m7,ms1000203,iti,,null,img/motor_2.png,83,motor,,,,,,,
431,,277019,HierDy96kzfve8,77dc2ab8m7,ms1000203,motor,,75,img/motor_7.png,75,motor,7,277,1,0,0,,
null,,277129,HierDy96kzfve8,77dc2ab8m7,ms1000203,iti,,null,img/motor_7.png,75,motor,,,,,,,
370,,277511,HierDy96kzfve8,77dc2ab8m7,ms1000203,motor,,83,img/motor_1.png,65,motor,1,278,0,1,0,,
134,,277656,HierDy96kzfve8,77dc2ab8m7,ms1000203,motorRepeat,,65,img/motor_1.png,65,motor,1,278,1,0,0,,
null,,277767,HierDy96kzfve8,77dc2ab8m7,ms1000203,iti,,null,img/motor_1.png,65,motor,,,,,,,
472,,278250,HierDy96kzfve8,77dc2ab8m7,ms1000203,motor,,70,img/motor_4.png,70,motor,4,279,1,0,0,,
null,,278362,HierDy96kzfve8,77dc2ab8m7,ms1000203,iti,,null,img/motor_4.png,70,motor,,,,,,,
624,,278997,HierDy96kzfve8,77dc2ab8m7,ms1000203,motor,,72,img/motor_6.png,74,motor,6,280,0,1,0,,
417,,279425,HierDy96kzfve8,77dc2ab8m7,ms1000203,motorRepeat,,74,img/motor_6.png,74,motor,6,280,1,0,0,,
null,,279536,HierDy96kzfve8,77dc2ab8m7,ms1000203,iti,,null,img/motor_6.png,74,motor,,,,,,,
521,,280069,HierDy96kzfve8,77dc2ab8m7,ms1000203,motor,,70,img/motor_3.png,68,motor,3,281,0,1,0,,
60,,280141,HierDy96kzfve8,77dc2ab8m7,ms1000203,motorRepeat,,68,img/motor_3.png,68,motor,3,281,1,0,0,,
null,,280252,HierDy96kzfve8,77dc2ab8m7,ms1000203,iti,,null,img/motor_3.png,68,motor,,,,,,,
461,,280725,HierDy96kzfve8,77dc2ab8m7,ms1000203,motor,,75,img/motor_8.png,76,motor,8,282,0,1,0,,
329,,281065,HierDy96kzfve8,77dc2ab8m7,ms1000203,motorRepeat,,76,img/motor_8.png,76,motor,8,282,1,0,0,,
null,,281176,HierDy96kzfve8,77dc2ab8m7,ms1000203,iti,,null,img/motor_8.png,76,motor,,,,,,,
723,,281908,HierDy96kzfve8,77dc2ab8m7,ms1000203,motor,,74,img/motor_6.png,74,motor,6,283,1,0,0,,
null,,282020,HierDy96kzfve8,77dc2ab8m7,ms1000203,iti,,null,img/motor_6.png,74,motor,,,,,,,
416,,282447,HierDy96kzfve8,77dc2ab8m7,ms1000203,motor,,68,img/motor_2.png,83,motor,2,284,0,1,0,,
212,,282671,HierDy96kzfve8,77dc2ab8m7,ms1000203,motorRepeat,,83,img/motor_2.png,83,motor,2,284,1,0,0,,
null,,282783,HierDy96kzfve8,77dc2ab8m7,ms1000203,iti,,null,img/motor_2.png,83,motor,,,,,,,
401,,283195,HierDy96kzfve8,77dc2ab8m7,ms1000203,motor,,68,img/motor_3.png,68,motor,3,285,1,0,0,,
null,,283306,HierDy96kzfve8,77dc2ab8m7,ms1000203,iti,,null,img/motor_3.png,68,motor,,,,,,,
379,,283696,HierDy96kzfve8,77dc2ab8m7,ms1000203,motor,,83,img/motor_2.png,83,motor,2,286,1,0,0,,
null,,283808,HierDy96kzfve8,77dc2ab8m7,ms1000203,iti,,null,img/motor_2.png,83,motor,,,,,,,
601,,284419,HierDy96kzfve8,77dc2ab8m7,ms1000203,motor,,72,img/motor_6.png,74,motor,6,287,0,1,0,,
53,,284484,HierDy96kzfve8,77dc2ab8m7,ms1000203,motorRepeat,,74,img/motor_6.png,74,motor,6,287,1,0,0,,
null,,284596,HierDy96kzfve8,77dc2ab8m7,ms1000203,iti,,null,img/motor_6.png,74,motor,,,,,,,
539,,285147,HierDy96kzfve8,77dc2ab8m7,ms1000203,motor,,83,img/motor_2.png,83,motor,2,288,1,0,0,,
null,,285259,HierDy96kzfve8,77dc2ab8m7,ms1000203,iti,,null,img/motor_2.png,83,motor,,,,,,,
549,,285819,HierDy96kzfve8,77dc2ab8m7,ms1000203,motor,,74,img/motor_6.png,74,motor,6,289,1,0,0,,
null,,285929,HierDy96kzfve8,77dc2ab8m7,ms1000203,iti,,null,img/motor_6.png,74,motor,,,,,,,
341,,286281,HierDy96kzfve8,77dc2ab8m7,ms1000203,motor,,74,img/motor_6.png,74,motor,6,290,1,0,0,,
null,,286392,HierDy96kzfve8,77dc2ab8m7,ms1000203,iti,,null,img/motor_6.png,74,motor,,,,,,,
459,,286863,HierDy96kzfve8,77dc2ab8m7,ms1000203,motor,,68,img/motor_3.png,68,motor,3,291,1,0,0,,
null,,286975,HierDy96kzfve8,77dc2ab8m7,ms1000203,iti,,null,img/motor_3.png,68,motor,,,,,,,
368,,287354,HierDy96kzfve8,77dc2ab8m7,ms1000203,motor,,74,img/motor_6.png,74,motor,6,292,1,0,0,,
null,,287465,HierDy96kzfve8,77dc2ab8m7,ms1000203,iti,,null,img/motor_6.png,74,motor,,,,,,,
284,,287760,HierDy96kzfve8,77dc2ab8m7,ms1000203,motor,,75,img/motor_7.png,75,motor,7,293,1,0,0,,
null,,287873,HierDy96kzfve8,77dc2ab8m7,ms1000203,iti,,null,img/motor_7.png,75,motor,,,,,,,
443,,288325,HierDy96kzfve8,77dc2ab8m7,ms1000203,motor,,83,img/motor_2.png,83,motor,2,294,1,0,0,,
null,,288436,HierDy96kzfve8,77dc2ab8m7,ms1000203,iti,,null,img/motor_2.png,83,motor,,,,,,,
504,,288950,HierDy96kzfve8,77dc2ab8m7,ms1000203,motor,,76,img/motor_8.png,76,motor,8,295,1,0,0,,
null,,289062,HierDy96kzfve8,77dc2ab8m7,ms1000203,iti,,null,img/motor_8.png,76,motor,,,,,,,
454,,289528,HierDy96kzfve8,77dc2ab8m7,ms1000203,motor,,72,img/motor_5.png,72,motor,5,296,1,0,0,,
null,,289638,HierDy96kzfve8,77dc2ab8m7,ms1000203,iti,,null,img/motor_5.png,72,motor,,,,,,,
538,,290187,HierDy96kzfve8,77dc2ab8m7,ms1000203,motor,,83,img/motor_2.png,83,motor,2,297,1,0,0,,
null,,290297,HierDy96kzfve8,77dc2ab8m7,ms1000203,iti,,null,img/motor_2.png,83,motor,,,,,,,
419,,290726,HierDy96kzfve8,77dc2ab8m7,ms1000203,motor,,65,img/motor_1.png,65,motor,1,298,1,0,0,,
null,,290837,HierDy96kzfve8,77dc2ab8m7,ms1000203,iti,,null,img/motor_1.png,65,motor,,,,,,,
442,,291289,HierDy96kzfve8,77dc2ab8m7,ms1000203,motor,,76,img/motor_8.png,76,motor,8,299,1,0,0,,
null,,291401,HierDy96kzfve8,77dc2ab8m7,ms1000203,iti,,null,img/motor_8.png,76,motor,,,,,,,
406,,291818,HierDy96kzfve8,77dc2ab8m7,ms1000203,motor,,65,img/motor_1.png,65,motor,1,300,1,0,0,,
null,,291929,HierDy96kzfve8,77dc2ab8m7,ms1000203,iti,,null,img/motor_1.png,65,motor,,,,,,,
519,,292460,HierDy96kzfve8,77dc2ab8m7,ms1000203,motor,,74,img/motor_6.png,74,motor,6,301,1,0,0,,
null,,292570,HierDy96kzfve8,77dc2ab8m7,ms1000203,iti,,null,img/motor_6.png,74,motor,,,,,,,
415,,292994,HierDy96kzfve8,77dc2ab8m7,ms1000203,motor,,72,img/motor_5.png,72,motor,5,302,1,0,0,,
null,,293106,HierDy96kzfve8,77dc2ab8m7,ms1000203,iti,,null,img/motor_5.png,72,motor,,,,,,,
495,,293613,HierDy96kzfve8,77dc2ab8m7,ms1000203,motor,,75,img/motor_7.png,75,motor,7,303,1,0,0,,
null,,293724,HierDy96kzfve8,77dc2ab8m7,ms1000203,iti,,null,img/motor_7.png,75,motor,,,,,,,
435,,294170,HierDy96kzfve8,77dc2ab8m7,ms1000203,motor,,74,img/motor_6.png,74,motor,6,304,1,0,0,,
null,,294281,HierDy96kzfve8,77dc2ab8m7,ms1000203,iti,,null,img/motor_6.png,74,motor,,,,,,,
501,,294793,HierDy96kzfve8,77dc2ab8m7,ms1000203,motor,,72,img/motor_4.png,70,motor,4,305,0,1,0,,
143,,294947,HierDy96kzfve8,77dc2ab8m7,ms1000203,motorRepeat,,70,img/motor_4.png,70,motor,4,305,1,0,0,,
null,,295059,HierDy96kzfve8,77dc2ab8m7,ms1000203,iti,,null,img/motor_4.png,70,motor,,,,,,,
449,,295518,HierDy96kzfve8,77dc2ab8m7,ms1000203,motor,,68,img/motor_3.png,68,motor,3,306,1,0,0,,
null,,295629,HierDy96kzfve8,77dc2ab8m7,ms1000203,iti,,null,img/motor_3.png,68,motor,,,,,,,
412,,296052,HierDy96kzfve8,77dc2ab8m7,ms1000203,motor,,76,img/motor_8.png,76,motor,8,307,1,0,0,,
null,,296164,HierDy96kzfve8,77dc2ab8m7,ms1000203,iti,,null,img/motor_8.png,76,motor,,,,,,,
447,,296622,HierDy96kzfve8,77dc2ab8m7,ms1000203,motor,,83,img/motor_3.png,68,motor,3,308,0,1,0,,
193,,296826,HierDy96kzfve8,77dc2ab8m7,ms1000203,motorRepeat,,68,img/motor_3.png,68,motor,3,308,1,0,0,,
null,,296937,HierDy96kzfve8,77dc2ab8m7,ms1000203,iti,,null,img/motor_3.png,68,motor,,,,,,,
480,,297428,HierDy96kzfve8,77dc2ab8m7,ms1000203,motor,,72,img/motor_5.png,72,motor,5,309,1,0,0,,
null,,297539,HierDy96kzfve8,77dc2ab8m7,ms1000203,iti,,null,img/motor_5.png,72,motor,,,,,,,
476,,298025,HierDy96kzfve8,77dc2ab8m7,ms1000203,motor,,75,img/motor_7.png,75,motor,7,310,1,0,0,,
null,,298137,HierDy96kzfve8,77dc2ab8m7,ms1000203,iti,,null,img/motor_7.png,75,motor,,,,,,,
432,,298578,HierDy96kzfve8,77dc2ab8m7,ms1000203,motor,,74,img/motor_6.png,74,motor,6,311,1,0,0,,
null,,298689,HierDy96kzfve8,77dc2ab8m7,ms1000203,iti,,null,img/motor_6.png,74,motor,,,,,,,
592,,299292,HierDy96kzfve8,77dc2ab8m7,ms1000203,motor,,83,img/motor_2.png,83,motor,2,312,1,0,0,,
null,,299404,HierDy96kzfve8,77dc2ab8m7,ms1000203,iti,,null,img/motor_2.png,83,motor,,,,,,,
414,,299828,HierDy96kzfve8,77dc2ab8m7,ms1000203,motor,,65,img/motor_1.png,65,motor,1,313,1,0,0,,
null,,299942,HierDy96kzfve8,77dc2ab8m7,ms1000203,iti,,null,img/motor_1.png,65,motor,,,,,,,
408,,300361,HierDy96kzfve8,77dc2ab8m7,ms1000203,motor,,70,img/motor_4.png,70,motor,4,314,1,0,0,,
null,,300473,HierDy96kzfve8,77dc2ab8m7,ms1000203,iti,,null,img/motor_4.png,70,motor,,,,,,,
366,,300850,HierDy96kzfve8,77dc2ab8m7,ms1000203,motor,,70,img/motor_4.png,70,motor,4,315,1,0,0,,
null,,300960,HierDy96kzfve8,77dc2ab8m7,ms1000203,iti,,null,img/motor_4.png,70,motor,,,,,,,
433,,301404,HierDy96kzfve8,77dc2ab8m7,ms1000203,motor,,74,img/motor_6.png,74,motor,6,316,1,0,0,,
null,,301516,HierDy96kzfve8,77dc2ab8m7,ms1000203,iti,,null,img/motor_6.png,74,motor,,,,,,,
348,,301874,HierDy96kzfve8,77dc2ab8m7,ms1000203,motor,,74,img/motor_6.png,74,motor,6,317,1,0,0,,
null,,301986,HierDy96kzfve8,77dc2ab8m7,ms1000203,iti,,null,img/motor_6.png,74,motor,,,,,,,
410,,302408,HierDy96kzfve8,77dc2ab8m7,ms1000203,motor,,65,img/motor_1.png,65,motor,1,318,1,0,0,,
null,,302519,HierDy96kzfve8,77dc2ab8m7,ms1000203,iti,,null,img/motor_1.png,65,motor,,,,,,,
420,,302949,HierDy96kzfve8,77dc2ab8m7,ms1000203,motor,,83,img/motor_2.png,83,motor,2,319,1,0,0,,
null,,303062,HierDy96kzfve8,77dc2ab8m7,ms1000203,iti,,null,img/motor_2.png,83,motor,,,,,,,
375,,303446,HierDy96kzfve8,77dc2ab8m7,ms1000203,motor,,68,img/motor_4.png,70,motor,4,320,0,1,0,,
35,,303491,HierDy96kzfve8,77dc2ab8m7,ms1000203,motorRepeat,,70,img/motor_4.png,70,motor,4,320,1,0,0,,
null,,303603,HierDy96kzfve8,77dc2ab8m7,ms1000203,iti,,null,img/motor_4.png,70,motor,,,,,,,
360,,303973,HierDy96kzfve8,77dc2ab8m7,ms1000203,motor,,70,img/motor_4.png,70,motor,4,321,1,0,0,,
null,,304084,HierDy96kzfve8,77dc2ab8m7,ms1000203,iti,,null,img/motor_4.png,70,motor,,,,,,,
442,,304539,HierDy96kzfve8,77dc2ab8m7,ms1000203,motor,,83,img/motor_2.png,83,motor,2,322,1,0,0,,
null,,304651,HierDy96kzfve8,77dc2ab8m7,ms1000203,iti,,null,img/motor_2.png,83,motor,,,,,,,
412,,305074,HierDy96kzfve8,77dc2ab8m7,ms1000203,motor,,68,img/motor_3.png,68,motor,3,323,1,0,0,,
null,,305186,HierDy96kzfve8,77dc2ab8m7,ms1000203,iti,,null,img/motor_3.png,68,motor,,,,,,,
313,,305509,HierDy96kzfve8,77dc2ab8m7,ms1000203,motor,,68,img/motor_3.png,68,motor,3,324,1,0,0,,
null,,305620,HierDy96kzfve8,77dc2ab8m7,ms1000203,iti,,null,img/motor_3.png,68,motor,,,,,,,
345,,305976,HierDy96kzfve8,77dc2ab8m7,ms1000203,motor,,65,img/motor_1.png,65,motor,1,325,1,0,0,,
null,,306088,HierDy96kzfve8,77dc2ab8m7,ms1000203,iti,,null,img/motor_1.png,65,motor,,,,,,,
485,,306583,HierDy96kzfve8,77dc2ab8m7,ms1000203,motor,,76,img/motor_8.png,76,motor,8,326,1,0,0,,
null,,306694,HierDy96kzfve8,77dc2ab8m7,ms1000203,iti,,null,img/motor_8.png,76,motor,,,,,,,
376,,307081,HierDy96kzfve8,77dc2ab8m7,ms1000203,motor,,75,img/motor_7.png,75,motor,7,327,1,0,0,,
null,,307193,HierDy96kzfve8,77dc2ab8m7,ms1000203,iti,,null,img/motor_7.png,75,motor,,,,,,,
481,,307683,HierDy96kzfve8,77dc2ab8m7,ms1000203,motor,,68,img/motor_3.png,68,motor,3,328,1,0,0,,
null,,307796,HierDy96kzfve8,77dc2ab8m7,ms1000203,iti,,null,img/motor_3.png,68,motor,,,,,,,
476,,308282,HierDy96kzfve8,77dc2ab8m7,ms1000203,motor,,75,img/motor_7.png,75,motor,7,329,1,0,0,,
null,,308394,HierDy96kzfve8,77dc2ab8m7,ms1000203,iti,,null,img/motor_7.png,75,motor,,,,,,,
457,,308863,HierDy96kzfve8,77dc2ab8m7,ms1000203,motor,,72,img/motor_5.png,72,motor,5,330,1,0,0,,
null,,308973,HierDy96kzfve8,77dc2ab8m7,ms1000203,iti,,null,img/motor_5.png,72,motor,,,,,,,
366,,309350,HierDy96kzfve8,77dc2ab8m7,ms1000203,motor,,70,img/motor_3.png,68,motor,3,331,0,1,0,,
266,,309627,HierDy96kzfve8,77dc2ab8m7,ms1000203,motorRepeat,,68,img/motor_3.png,68,motor,3,331,1,0,0,,
null,,309738,HierDy96kzfve8,77dc2ab8m7,ms1000203,iti,,null,img/motor_3.png,68,motor,,,,,,,
479,,310228,HierDy96kzfve8,77dc2ab8m7,ms1000203,motor,,70,img/motor_4.png,70,motor,4,332,1,0,0,,
null,,310340,HierDy96kzfve8,77dc2ab8m7,ms1000203,iti,,null,img/motor_4.png,70,motor,,,,,,,
389,,310741,HierDy96kzfve8,77dc2ab8m7,ms1000203,motor,,72,img/motor_5.png,72,motor,5,333,1,0,0,,
null,,310851,HierDy96kzfve8,77dc2ab8m7,ms1000203,iti,,null,img/motor_5.png,72,motor,,,,,,,
397,,311258,HierDy96kzfve8,77dc2ab8m7,ms1000203,motor,,70,img/motor_4.png,70,motor,4,334,1,0,0,,
null,,311370,HierDy96kzfve8,77dc2ab8m7,ms1000203,iti,,null,img/motor_4.png,70,motor,,,,,,,
526,,311905,HierDy96kzfve8,77dc2ab8m7,ms1000203,motor,,65,img/motor_1.png,65,motor,1,335,1,0,0,,
null,,312017,HierDy96kzfve8,77dc2ab8m7,ms1000203,iti,,null,img/motor_1.png,65,motor,,,,,,,
552,,312578,HierDy96kzfve8,77dc2ab8m7,ms1000203,motor,,68,img/motor_3.png,68,motor,3,336,1,0,0,,
null,,312690,HierDy96kzfve8,77dc2ab8m7,ms1000203,iti,,null,img/motor_3.png,68,motor,,,,,,,
329,,313031,HierDy96kzfve8,77dc2ab8m7,ms1000203,motor,,70,img/motor_4.png,70,motor,4,337,1,0,0,,
null,,313141,HierDy96kzfve8,77dc2ab8m7,ms1000203,iti,,null,img/motor_4.png,70,motor,,,,,,,
491,,313643,HierDy96kzfve8,77dc2ab8m7,ms1000203,motor,,74,img/motor_6.png,74,motor,6,338,1,0,0,,
null,,313755,HierDy96kzfve8,77dc2ab8m7,ms1000203,iti,,null,img/motor_6.png,74,motor,,,,,,,
414,,314179,HierDy96kzfve8,77dc2ab8m7,ms1000203,motor,,76,img/motor_8.png,76,motor,8,339,1,0,0,,
null,,314291,HierDy96kzfve8,77dc2ab8m7,ms1000203,iti,,null,img/motor_8.png,76,motor,,,,,,,
479,,314780,HierDy96kzfve8,77dc2ab8m7,ms1000203,motor,,72,img/motor_5.png,72,motor,5,340,1,0,0,,
null,,314892,HierDy96kzfve8,77dc2ab8m7,ms1000203,iti,,null,img/motor_5.png,72,motor,,,,,,,
467,,315369,HierDy96kzfve8,77dc2ab8m7,ms1000203,motor,,68,img/motor_2.png,83,motor,2,341,0,1,0,,
260,,315640,HierDy96kzfve8,77dc2ab8m7,ms1000203,motorRepeat,,83,img/motor_2.png,83,motor,2,341,1,0,0,,
null,,315751,HierDy96kzfve8,77dc2ab8m7,ms1000203,iti,,null,img/motor_2.png,83,motor,,,,,,,
384,,316146,HierDy96kzfve8,77dc2ab8m7,ms1000203,motor,,65,img/motor_1.png,65,motor,1,342,1,0,0,,
null,,316257,HierDy96kzfve8,77dc2ab8m7,ms1000203,iti,,null,img/motor_1.png,65,motor,,,,,,,
341,,316609,HierDy96kzfve8,77dc2ab8m7,ms1000203,motor,,65,img/motor_1.png,65,motor,1,343,1,0,0,,
null,,316720,HierDy96kzfve8,77dc2ab8m7,ms1000203,iti,,null,img/motor_1.png,65,motor,,,,,,,
501,,317232,HierDy96kzfve8,77dc2ab8m7,ms1000203,motor,,70,img/motor_3.png,68,motor,3,344,0,1,0,,
33,,317276,HierDy96kzfve8,77dc2ab8m7,ms1000203,motorRepeat,,68,img/motor_3.png,68,motor,3,344,1,0,0,,
null,,317388,HierDy96kzfve8,77dc2ab8m7,ms1000203,iti,,null,img/motor_3.png,68,motor,,,,,,,
354,,317752,HierDy96kzfve8,77dc2ab8m7,ms1000203,motor,,70,img/motor_4.png,70,motor,4,345,1,0,0,,
null,,317863,HierDy96kzfve8,77dc2ab8m7,ms1000203,iti,,null,img/motor_4.png,70,motor,,,,,,,
366,,318241,HierDy96kzfve8,77dc2ab8m7,ms1000203,motor,,72,img/motor_5.png,72,motor,5,346,1,0,0,,
null,,318352,HierDy96kzfve8,77dc2ab8m7,ms1000203,iti,,null,img/motor_5.png,72,motor,,,,,,,
435,,318799,HierDy96kzfve8,77dc2ab8m7,ms1000203,motor,,65,img/motor_1.png,65,motor,1,347,1,0,0,,
null,,318911,HierDy96kzfve8,77dc2ab8m7,ms1000203,iti,,null,img/motor_1.png,65,motor,,,,,,,
386,,319308,HierDy96kzfve8,77dc2ab8m7,ms1000203,motor,,83,img/motor_2.png,83,motor,2,348,1,0,0,,
null,,319420,HierDy96kzfve8,77dc2ab8m7,ms1000203,iti,,null,img/motor_2.png,83,motor,,,,,,,
486,,319915,HierDy96kzfve8,77dc2ab8m7,ms1000203,motor,,75,img/motor_7.png,75,motor,7,349,1,0,0,,
null,,320027,HierDy96kzfve8,77dc2ab8m7,ms1000203,iti,,null,img/motor_7.png,75,motor,,,,,,,
413,,320449,HierDy96kzfve8,77dc2ab8m7,ms1000203,motor,,65,img/motor_1.png,65,motor,1,350,1,0,0,,
null,,320561,HierDy96kzfve8,77dc2ab8m7,ms1000203,iti,,null,img/motor_1.png,65,motor,,,,,,,
401,,320971,HierDy96kzfve8,77dc2ab8m7,ms1000203,motor,,70,img/motor_4.png,70,motor,4,351,1,0,0,,
null,,321082,HierDy96kzfve8,77dc2ab8m7,ms1000203,iti,,null,img/motor_4.png,70,motor,,,,,,,
334,,321428,HierDy96kzfve8,77dc2ab8m7,ms1000203,motor,,65,img/motor_2.png,83,motor,2,352,0,1,0,,
175,,321612,HierDy96kzfve8,77dc2ab8m7,ms1000203,motorRepeat,,83,img/motor_2.png,83,motor,2,352,1,0,0,,
null,,321724,HierDy96kzfve8,77dc2ab8m7,ms1000203,iti,,null,img/motor_2.png,83,motor,,,,,,,
492,,322227,HierDy96kzfve8,77dc2ab8m7,ms1000203,motor,,72,img/motor_5.png,72,motor,5,353,1,0,0,,
null,,322339,HierDy96kzfve8,77dc2ab8m7,ms1000203,iti,,null,img/motor_5.png,72,motor,,,,,,,
423,,322772,HierDy96kzfve8,77dc2ab8m7,ms1000203,motor,,76,img/motor_8.png,76,motor,8,354,1,0,0,,
null,,322884,HierDy96kzfve8,77dc2ab8m7,ms1000203,iti,,null,img/motor_8.png,76,motor,,,,,,,
435,,323330,HierDy96kzfve8,77dc2ab8m7,ms1000203,motor,,74,img/motor_6.png,74,motor,6,355,1,0,0,,
null,,323441,HierDy96kzfve8,77dc2ab8m7,ms1000203,iti,,null,img/motor_6.png,74,motor,,,,,,,
381,,323833,HierDy96kzfve8,77dc2ab8m7,ms1000203,motor,,72,img/motor_5.png,72,motor,5,356,1,0,0,,
null,,323945,HierDy96kzfve8,77dc2ab8m7,ms1000203,iti,,null,img/motor_5.png,72,motor,,,,,,,
539,,324495,HierDy96kzfve8,77dc2ab8m7,ms1000203,motor,,70,img/motor_3.png,68,motor,3,357,0,1,0,,
394,,324900,HierDy96kzfve8,77dc2ab8m7,ms1000203,motorRepeat,,68,img/motor_3.png,68,motor,3,357,1,0,0,,
null,,325011,HierDy96kzfve8,77dc2ab8m7,ms1000203,iti,,null,img/motor_3.png,68,motor,,,,,,,
616,,325639,HierDy96kzfve8,77dc2ab8m7,ms1000203,motor,,72,img/motor_5.png,72,motor,5,358,1,0,0,,
null,,325750,HierDy96kzfve8,77dc2ab8m7,ms1000203,iti,,null,img/motor_5.png,72,motor,,,,,,,
439,,326203,HierDy96kzfve8,77dc2ab8m7,ms1000203,motor,,65,img/motor_1.png,65,motor,1,359,1,0,0,,
null,,326314,HierDy96kzfve8,77dc2ab8m7,ms1000203,iti,,null,img/motor_1.png,65,motor,,,,,,,
508,,326834,HierDy96kzfve8,77dc2ab8m7,ms1000203,motor,,75,img/motor_6.png,74,motor,6,360,0,1,0,,
156,,327000,HierDy96kzfve8,77dc2ab8m7,ms1000203,motorRepeat,,74,img/motor_6.png,74,motor,6,360,1,0,0,,
null,,327111,HierDy96kzfve8,77dc2ab8m7,ms1000203,iti,,null,img/motor_6.png,74,motor,,,,,,,
797,,327917,HierDy96kzfve8,77dc2ab8m7,ms1000203,motor,,70,img/motor_4.png,70,motor,4,361,1,0,0,,
null,,328029,HierDy96kzfve8,77dc2ab8m7,ms1000203,iti,,null,img/motor_4.png,70,motor,,,,,,,
386,,328426,HierDy96kzfve8,77dc2ab8m7,ms1000203,motor,,65,img/motor_1.png,65,motor,1,362,1,0,0,,
null,,328537,HierDy96kzfve8,77dc2ab8m7,ms1000203,iti,,null,img/motor_1.png,65,motor,,,,,,,
344,,328892,HierDy96kzfve8,77dc2ab8m7,ms1000203,motor,,68,img/motor_3.png,68,motor,3,363,1,0,0,,
null,,329003,HierDy96kzfve8,77dc2ab8m7,ms1000203,iti,,null,img/motor_3.png,68,motor,,,,,,,
506,,329518,HierDy96kzfve8,77dc2ab8m7,ms1000203,motor,,83,img/motor_2.png,83,motor,2,364,1,0,0,,
null,,329630,HierDy96kzfve8,77dc2ab8m7,ms1000203,iti,,null,img/motor_2.png,83,motor,,,,,,,
330,,329972,HierDy96kzfve8,77dc2ab8m7,ms1000203,motor,,68,img/motor_3.png,68,motor,3,365,1,0,0,,
null,,330083,HierDy96kzfve8,77dc2ab8m7,ms1000203,iti,,null,img/motor_3.png,68,motor,,,,,,,
514,,330609,HierDy96kzfve8,77dc2ab8m7,ms1000203,motor,,75,img/motor_7.png,75,motor,7,366,1,0,0,,
null,,330720,HierDy96kzfve8,77dc2ab8m7,ms1000203,iti,,null,img/motor_7.png,75,motor,,,,,,,
413,,331145,HierDy96kzfve8,77dc2ab8m7,ms1000203,motor,,65,img/motor_1.png,65,motor,1,367,1,0,0,,
null,,331256,HierDy96kzfve8,77dc2ab8m7,ms1000203,iti,,null,img/motor_1.png,65,motor,,,,,,,
371,,331638,HierDy96kzfve8,77dc2ab8m7,ms1000203,motor,,65,img/motor_1.png,65,motor,1,368,1,0,0,,
null,,331750,HierDy96kzfve8,77dc2ab8m7,ms1000203,iti,,null,img/motor_1.png,65,motor,,,,,,,
430,,332189,HierDy96kzfve8,77dc2ab8m7,ms1000203,motor,,75,img/motor_7.png,75,motor,7,369,1,0,0,,
null,,332302,HierDy96kzfve8,77dc2ab8m7,ms1000203,iti,,null,img/motor_7.png,75,motor,,,,,,,
324,,332636,HierDy96kzfve8,77dc2ab8m7,ms1000203,motor,,76,img/motor_8.png,76,motor,8,370,1,0,0,,
null,,332747,HierDy96kzfve8,77dc2ab8m7,ms1000203,iti,,null,img/motor_8.png,76,motor,,,,,,,
455,,333213,HierDy96kzfve8,77dc2ab8m7,ms1000203,motor,,70,img/motor_4.png,70,motor,4,371,1,0,0,,
null,,333324,HierDy96kzfve8,77dc2ab8m7,ms1000203,iti,,null,img/motor_4.png,70,motor,,,,,,,
310,,333645,HierDy96kzfve8,77dc2ab8m7,ms1000203,motor,,68,img/motor_3.png,68,motor,3,372,1,0,0,,
null,,333757,HierDy96kzfve8,77dc2ab8m7,ms1000203,iti,,null,img/motor_3.png,68,motor,,,,,,,
445,,334212,HierDy96kzfve8,77dc2ab8m7,ms1000203,motor,,74,img/motor_6.png,74,motor,6,373,1,0,0,,
null,,334323,HierDy96kzfve8,77dc2ab8m7,ms1000203,iti,,null,img/motor_6.png,74,motor,,,,,,,
531,,334864,HierDy96kzfve8,77dc2ab8m7,ms1000203,motor,,68,img/motor_3.png,68,motor,3,374,1,0,0,,
null,,334976,HierDy96kzfve8,77dc2ab8m7,ms1000203,iti,,null,img/motor_3.png,68,motor,,,,,,,
680,,335668,HierDy96kzfve8,77dc2ab8m7,ms1000203,motor,,70,img/motor_5.png,72,motor,5,375,0,1,0,,
216,,335894,HierDy96kzfve8,77dc2ab8m7,ms1000203,motorRepeat,,72,img/motor_5.png,72,motor,5,375,1,0,0,,
null,,336005,HierDy96kzfve8,77dc2ab8m7,ms1000203,iti,,null,img/motor_5.png,72,motor,,,,,,,
380,,336396,HierDy96kzfve8,77dc2ab8m7,ms1000203,motor,,70,img/motor_4.png,70,motor,4,376,1,0,0,,
null,,336508,HierDy96kzfve8,77dc2ab8m7,ms1000203,iti,,null,img/motor_4.png,70,motor,,,,,,,
441,,336958,HierDy96kzfve8,77dc2ab8m7,ms1000203,motor,,76,img/motor_8.png,76,motor,8,377,1,0,0,,
null,,337070,HierDy96kzfve8,77dc2ab8m7,ms1000203,iti,,null,img/motor_8.png,76,motor,,,,,,,
394,,337475,HierDy96kzfve8,77dc2ab8m7,ms1000203,motor,,75,img/motor_7.png,75,motor,7,378,1,0,0,,
null,,337586,HierDy96kzfve8,77dc2ab8m7,ms1000203,iti,,null,img/motor_7.png,75,motor,,,,,,,
376,,337972,HierDy96kzfve8,77dc2ab8m7,ms1000203,motor,,65,img/motor_1.png,65,motor,1,379,1,0,0,,
null,,338084,HierDy96kzfve8,77dc2ab8m7,ms1000203,iti,,null,img/motor_1.png,65,motor,,,,,,,
355,,338450,HierDy96kzfve8,77dc2ab8m7,ms1000203,motor,,83,img/motor_2.png,83,motor,2,380,1,0,0,,
null,,338562,HierDy96kzfve8,77dc2ab8m7,ms1000203,iti,,null,img/motor_2.png,83,motor,,,,,,,
479,,339053,HierDy96kzfve8,77dc2ab8m7,ms1000203,motor,,72,img/motor_5.png,72,motor,5,381,1,0,0,,
null,,339165,HierDy96kzfve8,77dc2ab8m7,ms1000203,iti,,null,img/motor_5.png,72,motor,,,,,,,
323,,339498,HierDy96kzfve8,77dc2ab8m7,ms1000203,motor,,74,img/motor_6.png,74,motor,6,382,1,0,0,,
null,,339609,HierDy96kzfve8,77dc2ab8m7,ms1000203,iti,,null,img/motor_6.png,74,motor,,,,,,,
392,,340010,HierDy96kzfve8,77dc2ab8m7,ms1000203,motor,,76,img/motor_8.png,76,motor,8,383,1,0,0,,
null,,340123,HierDy96kzfve8,77dc2ab8m7,ms1000203,iti,,null,img/motor_8.png,76,motor,,,,,,,
521,,340656,HierDy96kzfve8,77dc2ab8m7,ms1000203,motor,,75,img/motor_7.png,75,motor,7,384,1,0,0,,
null,,340767,HierDy96kzfve8,77dc2ab8m7,ms1000203,iti,,null,img/motor_7.png,75,motor,,,,,,,
358,,341136,HierDy96kzfve8,77dc2ab8m7,ms1000203,motor,,74,img/motor_6.png,74,motor,6,385,1,0,0,,
null,,341248,HierDy96kzfve8,77dc2ab8m7,ms1000203,iti,,null,img/motor_6.png,74,motor,,,,,,,
399,,341658,HierDy96kzfve8,77dc2ab8m7,ms1000203,motor,,65,img/motor_1.png,65,motor,1,386,1,0,0,,
null,,341770,HierDy96kzfve8,77dc2ab8m7,ms1000203,iti,,null,img/motor_1.png,65,motor,,,,,,,
399,,342179,HierDy96kzfve8,77dc2ab8m7,ms1000203,motor,,70,img/motor_4.png,70,motor,4,387,1,0,0,,
null,,342290,HierDy96kzfve8,77dc2ab8m7,ms1000203,iti,,null,img/motor_4.png,70,motor,,,,,,,
416,,342718,HierDy96kzfve8,77dc2ab8m7,ms1000203,motor,,74,img/motor_6.png,74,motor,6,388,1,0,0,,
null,,342829,HierDy96kzfve8,77dc2ab8m7,ms1000203,iti,,null,img/motor_6.png,74,motor,,,,,,,
424,,343264,HierDy96kzfve8,77dc2ab8m7,ms1000203,motor,,65,img/motor_2.png,83,motor,2,389,0,1,0,,
255,,343530,HierDy96kzfve8,77dc2ab8m7,ms1000203,motorRepeat,,83,img/motor_2.png,83,motor,2,389,1,0,0,,
null,,343642,HierDy96kzfve8,77dc2ab8m7,ms1000203,iti,,null,img/motor_2.png,83,motor,,,,,,,
414,,344067,HierDy96kzfve8,77dc2ab8m7,ms1000203,motor,,75,img/motor_7.png,75,motor,7,390,1,0,0,,
null,,344178,HierDy96kzfve8,77dc2ab8m7,ms1000203,iti,,null,img/motor_7.png,75,motor,,,,,,,
370,,344560,HierDy96kzfve8,77dc2ab8m7,ms1000203,motor,,76,img/motor_8.png,76,motor,8,391,1,0,0,,
null,,344671,HierDy96kzfve8,77dc2ab8m7,ms1000203,iti,,null,img/motor_8.png,76,motor,,,,,,,
332,,345015,HierDy96kzfve8,77dc2ab8m7,ms1000203,motor,,75,img/motor_7.png,75,motor,7,392,1,0,0,,
null,,345125,HierDy96kzfve8,77dc2ab8m7,ms1000203,iti,,null,img/motor_7.png,75,motor,,,,,,,
457,,345593,HierDy96kzfve8,77dc2ab8m7,ms1000203,motor,,70,img/motor_4.png,70,motor,4,393,1,0,0,,
null,,345704,HierDy96kzfve8,77dc2ab8m7,ms1000203,iti,,null,img/motor_4.png,70,motor,,,,,,,
463,,346178,HierDy96kzfve8,77dc2ab8m7,ms1000203,motor,,74,img/motor_6.png,74,motor,6,394,1,0,0,,
null,,346290,HierDy96kzfve8,77dc2ab8m7,ms1000203,iti,,null,img/motor_6.png,74,motor,,,,,,,
417,,346718,HierDy96kzfve8,77dc2ab8m7,ms1000203,motor,,76,img/motor_8.png,76,motor,8,395,1,0,0,,
null,,346831,HierDy96kzfve8,77dc2ab8m7,ms1000203,iti,,null,img/motor_8.png,76,motor,,,,,,,
447,,347287,HierDy96kzfve8,77dc2ab8m7,ms1000203,motor,,83,img/motor_2.png,83,motor,2,396,1,0,0,,
null,,347399,HierDy96kzfve8,77dc2ab8m7,ms1000203,iti,,null,img/motor_2.png,83,motor,,,,,,,
432,,347841,HierDy96kzfve8,77dc2ab8m7,ms1000203,motor,,68,img/motor_3.png,68,motor,3,397,1,0,0,,
null,,347953,HierDy96kzfve8,77dc2ab8m7,ms1000203,iti,,null,img/motor_3.png,68,motor,,,,,,,
340,,348303,HierDy96kzfve8,77dc2ab8m7,ms1000203,motor,,68,img/motor_3.png,68,motor,3,398,1,0,0,,
null,,348415,HierDy96kzfve8,77dc2ab8m7,ms1000203,iti,,null,img/motor_3.png,68,motor,,,,,,,
615,,349041,HierDy96kzfve8,77dc2ab8m7,ms1000203,motor,,83,img/motor_2.png,83,motor,2,399,1,0,0,,
null,,349153,HierDy96kzfve8,77dc2ab8m7,ms1000203,iti,,null,img/motor_2.png,83,motor,,,,,,,
484,,349650,HierDy96kzfve8,77dc2ab8m7,ms1000203,motor,,75,img/motor_6.png,74,motor,6,400,0,1,0,,
263,,349923,HierDy96kzfve8,77dc2ab8m7,ms1000203,motorRepeat,,74,img/motor_6.png,74,motor,6,400,1,0,0,,
null,,350035,HierDy96kzfve8,77dc2ab8m7,ms1000203,iti,,null,img/motor_6.png,74,motor,,,,,,,
517,,350562,HierDy96kzfve8,77dc2ab8m7,ms1000203,motor,,70,img/motor_4.png,70,motor,4,401,1,0,0,,
null,,350673,HierDy96kzfve8,77dc2ab8m7,ms1000203,iti,,null,img/motor_4.png,70,motor,,,,,,,
536,,351221,HierDy96kzfve8,77dc2ab8m7,ms1000203,motor,,65,img/motor_1.png,65,motor,1,402,1,0,0,,
null,,351332,HierDy96kzfve8,77dc2ab8m7,ms1000203,iti,,null,img/motor_1.png,65,motor,,,,,,,
568,,351911,HierDy96kzfve8,77dc2ab8m7,ms1000203,motor,,70,img/motor_3.png,68,motor,3,403,0,1,0,,
424,,352345,HierDy96kzfve8,77dc2ab8m7,ms1000203,motorRepeat,,68,img/motor_3.png,68,motor,3,403,1,0,0,,
null,,352456,HierDy96kzfve8,77dc2ab8m7,ms1000203,iti,,null,img/motor_3.png,68,motor,,,,,,,
543,,353011,HierDy96kzfve8,77dc2ab8m7,ms1000203,motor,,76,img/motor_8.png,76,motor,8,404,1,0,0,,
null,,353122,HierDy96kzfve8,77dc2ab8m7,ms1000203,iti,,null,img/motor_8.png,76,motor,,,,,,,
979,,354113,HierDy96kzfve8,77dc2ab8m7,ms1000203,motor,,83,img/motor_2.png,83,motor,2,405,1,0,0,,
null,,354224,HierDy96kzfve8,77dc2ab8m7,ms1000203,iti,,null,img/motor_2.png,83,motor,,,,,,,
479,,354714,HierDy96kzfve8,77dc2ab8m7,ms1000203,motor,,76,img/motor_8.png,76,motor,8,406,1,0,0,,
null,,354826,HierDy96kzfve8,77dc2ab8m7,ms1000203,iti,,null,img/motor_8.png,76,motor,,,,,,,
731,,355569,HierDy96kzfve8,77dc2ab8m7,ms1000203,motor,,74,img/motor_5.png,72,motor,5,407,0,1,0,,
387,,355967,HierDy96kzfve8,77dc2ab8m7,ms1000203,motorRepeat,,72,img/motor_5.png,72,motor,5,407,1,0,0,,
null,,356080,HierDy96kzfve8,77dc2ab8m7,ms1000203,iti,,null,img/motor_5.png,72,motor,,,,,,,
565,,356656,HierDy96kzfve8,77dc2ab8m7,ms1000203,motor,,76,img/motor_7.png,75,motor,7,408,0,1,0,,
912,,357580,HierDy96kzfve8,77dc2ab8m7,ms1000203,motorRepeat,,75,img/motor_7.png,75,motor,7,408,1,0,0,,
null,,357692,HierDy96kzfve8,77dc2ab8m7,ms1000203,iti,,null,img/motor_7.png,75,motor,,,,,,,
949,,358652,HierDy96kzfve8,77dc2ab8m7,ms1000203,motor,,68,img/motor_3.png,68,motor,3,409,1,0,0,,
null,,358764,HierDy96kzfve8,77dc2ab8m7,ms1000203,iti,,null,img/motor_3.png,68,motor,,,,,,,
430,,359207,HierDy96kzfve8,77dc2ab8m7,ms1000203,motor,,74,img/motor_5.png,72,motor,5,410,0,1,0,,
279,,359496,HierDy96kzfve8,77dc2ab8m7,ms1000203,motorRepeat,,72,img/motor_5.png,72,motor,5,410,1,0,0,,
null,,359607,HierDy96kzfve8,77dc2ab8m7,ms1000203,iti,,null,img/motor_5.png,72,motor,,,,,,,
673,,360291,HierDy96kzfve8,77dc2ab8m7,ms1000203,motor,,65,img/motor_1.png,65,motor,1,411,1,0,0,,
null,,360403,HierDy96kzfve8,77dc2ab8m7,ms1000203,iti,,null,img/motor_1.png,65,motor,,,,,,,
1719,,362133,HierDy96kzfve8,77dc2ab8m7,ms1000203,motor,,74,img/motor_6.png,74,motor,6,412,1,0,0,,
null,,362243,HierDy96kzfve8,77dc2ab8m7,ms1000203,iti,,null,img/motor_6.png,74,motor,,,,,,,
581,,362835,HierDy96kzfve8,77dc2ab8m7,ms1000203,motor,,72,img/motor_5.png,72,motor,5,413,1,0,0,,
null,,362946,HierDy96kzfve8,77dc2ab8m7,ms1000203,iti,,null,img/motor_5.png,72,motor,,,,,,,
362,,363317,HierDy96kzfve8,77dc2ab8m7,ms1000203,motor,,74,img/motor_6.png,74,motor,6,414,1,0,0,,
null,,363429,HierDy96kzfve8,77dc2ab8m7,ms1000203,iti,,null,img/motor_6.png,74,motor,,,,,,,
317,,363758,HierDy96kzfve8,77dc2ab8m7,ms1000203,motor,,74,img/motor_6.png,74,motor,6,415,1,0,0,,
null,,363868,HierDy96kzfve8,77dc2ab8m7,ms1000203,iti,,null,img/motor_6.png,74,motor,,,,,,,
431,,364310,HierDy96kzfve8,77dc2ab8m7,ms1000203,motor,,75,img/motor_7.png,75,motor,7,416,1,0,0,,
null,,364422,HierDy96kzfve8,77dc2ab8m7,ms1000203,iti,,null,img/motor_7.png,75,motor,,,,,,,
707,,365140,HierDy96kzfve8,77dc2ab8m7,ms1000203,motor,,68,img/motor_4.png,70,motor,4,417,0,1,0,,
241,,365391,HierDy96kzfve8,77dc2ab8m7,ms1000203,motorRepeat,,70,img/motor_4.png,70,motor,4,417,1,0,0,,
null,,365504,HierDy96kzfve8,77dc2ab8m7,ms1000203,iti,,null,img/motor_4.png,70,motor,,,,,,,
749,,366263,HierDy96kzfve8,77dc2ab8m7,ms1000203,motor,,76,img/motor_8.png,76,motor,8,418,1,0,0,,
null,,366374,HierDy96kzfve8,77dc2ab8m7,ms1000203,iti,,null,img/motor_8.png,76,motor,,,,,,,
663,,367048,HierDy96kzfve8,77dc2ab8m7,ms1000203,motor,,83,img/motor_2.png,83,motor,2,419,1,0,0,,
null,,367161,HierDy96kzfve8,77dc2ab8m7,ms1000203,iti,,null,img/motor_2.png,83,motor,,,,,,,
598,,367769,HierDy96kzfve8,77dc2ab8m7,ms1000203,motor,,74,img/motor_6.png,74,motor,6,420,1,0,0,,
null,,367880,HierDy96kzfve8,77dc2ab8m7,ms1000203,iti,,null,img/motor_6.png,74,motor,,,,,,,
697,,368588,HierDy96kzfve8,77dc2ab8m7,ms1000203,motor,,70,img/motor_4.png,70,motor,4,421,1,0,0,,
null,,368699,HierDy96kzfve8,77dc2ab8m7,ms1000203,iti,,null,img/motor_4.png,70,motor,,,,,,,
636,,369347,HierDy96kzfve8,77dc2ab8m7,ms1000203,motor,,75,img/motor_7.png,75,motor,7,422,1,0,0,,
null,,369457,HierDy96kzfve8,77dc2ab8m7,ms1000203,iti,,null,img/motor_7.png,75,motor,,,,,,,
338,,369807,HierDy96kzfve8,77dc2ab8m7,ms1000203,motor,,76,img/motor_8.png,76,motor,8,423,1,0,0,,
null,,369919,HierDy96kzfve8,77dc2ab8m7,ms1000203,iti,,null,img/motor_8.png,76,motor,,,,,,,
314,,370244,HierDy96kzfve8,77dc2ab8m7,ms1000203,motor,,76,img/motor_8.png,76,motor,8,424,1,0,0,,
null,,370356,HierDy96kzfve8,77dc2ab8m7,ms1000203,iti,,null,img/motor_8.png,76,motor,,,,,,,
481,,370849,HierDy96kzfve8,77dc2ab8m7,ms1000203,motor,,83,img/motor_2.png,83,motor,2,425,1,0,0,,
null,,370961,HierDy96kzfve8,77dc2ab8m7,ms1000203,iti,,null,img/motor_2.png,83,motor,,,,,,,
62,,371034,HierDy96kzfve8,77dc2ab8m7,ms1000203,motor,,65,img/motor_8.png,76,motor,8,426,0,1,0,,
391,,371436,HierDy96kzfve8,77dc2ab8m7,ms1000203,motorRepeat,,76,img/motor_8.png,76,motor,8,426,1,0,0,,
null,,371547,HierDy96kzfve8,77dc2ab8m7,ms1000203,iti,,null,img/motor_8.png,76,motor,,,,,,,
418,,371975,HierDy96kzfve8,77dc2ab8m7,ms1000203,motor,,83,img/motor_3.png,68,motor,3,427,0,1,0,,
147,,372133,HierDy96kzfve8,77dc2ab8m7,ms1000203,motorRepeat,,68,img/motor_3.png,68,motor,3,427,1,0,0,,
null,,372244,HierDy96kzfve8,77dc2ab8m7,ms1000203,iti,,null,img/motor_3.png,68,motor,,,,,,,
353,,372608,HierDy96kzfve8,77dc2ab8m7,ms1000203,motor,,65,img/motor_1.png,65,motor,1,428,1,0,0,,
null,,372721,HierDy96kzfve8,77dc2ab8m7,ms1000203,iti,,null,img/motor_1.png,65,motor,,,,,,,
431,,373162,HierDy96kzfve8,77dc2ab8m7,ms1000203,motor,,83,img/motor_2.png,83,motor,2,429,1,0,0,,
null,,373274,HierDy96kzfve8,77dc2ab8m7,ms1000203,iti,,null,img/motor_2.png,83,motor,,,,,,,
347,,373632,HierDy96kzfve8,77dc2ab8m7,ms1000203,motor,,65,img/motor_1.png,65,motor,1,430,1,0,0,,
null,,373744,HierDy96kzfve8,77dc2ab8m7,ms1000203,iti,,null,img/motor_1.png,65,motor,,,,,,,
484,,374240,HierDy96kzfve8,77dc2ab8m7,ms1000203,motor,,74,img/motor_7.png,75,motor,7,431,0,1,0,,
45,,374296,HierDy96kzfve8,77dc2ab8m7,ms1000203,motorRepeat,,75,img/motor_7.png,75,motor,7,431,1,0,0,,
null,,374408,HierDy96kzfve8,77dc2ab8m7,ms1000203,iti,,null,img/motor_7.png,75,motor,,,,,,,
329,,374746,HierDy96kzfve8,77dc2ab8m7,ms1000203,motor,,75,img/motor_7.png,75,motor,7,432,1,0,0,,
null,,374858,HierDy96kzfve8,77dc2ab8m7,ms1000203,iti,,null,img/motor_7.png,75,motor,,,,,,,
505,,375374,HierDy96kzfve8,77dc2ab8m7,ms1000203,motor,,70,img/motor_4.png,70,motor,4,433,1,0,0,,
null,,375486,HierDy96kzfve8,77dc2ab8m7,ms1000203,iti,,null,img/motor_4.png,70,motor,,,,,,,
425,,375921,HierDy96kzfve8,77dc2ab8m7,ms1000203,motor,,65,img/motor_1.png,65,motor,1,434,1,0,0,,
null,,376033,HierDy96kzfve8,77dc2ab8m7,ms1000203,iti,,null,img/motor_1.png,65,motor,,,,,,,
338,,376383,HierDy96kzfve8,77dc2ab8m7,ms1000203,motor,,83,img/motor_2.png,83,motor,2,435,1,0,0,,
null,,376494,HierDy96kzfve8,77dc2ab8m7,ms1000203,iti,,null,img/motor_2.png,83,motor,,,,,,,
525,,377030,HierDy96kzfve8,77dc2ab8m7,ms1000203,motor,,74,img/motor_5.png,72,motor,5,436,0,1,0,,
447,,377488,HierDy96kzfve8,77dc2ab8m7,ms1000203,motorRepeat,,72,img/motor_5.png,72,motor,5,436,1,0,0,,
null,,377599,HierDy96kzfve8,77dc2ab8m7,ms1000203,iti,,null,img/motor_5.png,72,motor,,,,,,,
616,,378227,HierDy96kzfve8,77dc2ab8m7,ms1000203,motor,,76,img/motor_7.png,75,motor,7,437,0,1,0,,
901,,379139,HierDy96kzfve8,77dc2ab8m7,ms1000203,motorRepeat,,75,img/motor_7.png,75,motor,7,437,1,0,0,,
null,,379251,HierDy96kzfve8,77dc2ab8m7,ms1000203,iti,,null,img/motor_7.png,75,motor,,,,,,,
726,,379987,HierDy96kzfve8,77dc2ab8m7,ms1000203,motor,,72,img/motor_5.png,72,motor,5,438,1,0,0,,
null,,380099,HierDy96kzfve8,77dc2ab8m7,ms1000203,iti,,null,img/motor_5.png,72,motor,,,,,,,
936,,381047,HierDy96kzfve8,77dc2ab8m7,ms1000203,motor,,83,img/motor_2.png,83,motor,2,439,1,0,0,,
null,,381159,HierDy96kzfve8,77dc2ab8m7,ms1000203,iti,,null,img/motor_2.png,83,motor,,,,,,,
296,,381465,HierDy96kzfve8,77dc2ab8m7,ms1000203,motor,,83,img/motor_2.png,83,motor,2,440,1,0,0,,
null,,381578,HierDy96kzfve8,77dc2ab8m7,ms1000203,iti,,null,img/motor_2.png,83,motor,,,,,,,
461,,382050,HierDy96kzfve8,77dc2ab8m7,ms1000203,motor,,68,img/motor_3.png,68,motor,3,441,1,0,0,,
null,,382161,HierDy96kzfve8,77dc2ab8m7,ms1000203,iti,,null,img/motor_3.png,68,motor,,,,,,,
345,,382517,HierDy96kzfve8,77dc2ab8m7,ms1000203,motor,,70,img/motor_4.png,70,motor,4,442,1,0,0,,
null,,382629,HierDy96kzfve8,77dc2ab8m7,ms1000203,iti,,null,img/motor_4.png,70,motor,,,,,,,
382,,383020,HierDy96kzfve8,77dc2ab8m7,ms1000203,motor,,70,img/motor_4.png,70,motor,4,443,1,0,0,,
null,,383131,HierDy96kzfve8,77dc2ab8m7,ms1000203,iti,,null,img/motor_4.png,70,motor,,,,,,,
439,,383582,HierDy96kzfve8,77dc2ab8m7,ms1000203,motor,,76,img/motor_8.png,76,motor,8,444,1,0,0,,
null,,383694,HierDy96kzfve8,77dc2ab8m7,ms1000203,iti,,null,img/motor_8.png,76,motor,,,,,,,
594,,384298,HierDy96kzfve8,77dc2ab8m7,ms1000203,motor,,72,img/motor_5.png,72,motor,5,445,1,0,0,,
null,,384412,HierDy96kzfve8,77dc2ab8m7,ms1000203,iti,,null,img/motor_5.png,72,motor,,,,,,,
545,,384968,HierDy96kzfve8,77dc2ab8m7,ms1000203,motor,,74,img/motor_6.png,74,motor,6,446,1,0,0,,
null,,385079,HierDy96kzfve8,77dc2ab8m7,ms1000203,iti,,null,img/motor_6.png,74,motor,,,,,,,
705,,385795,HierDy96kzfve8,77dc2ab8m7,ms1000203,motor,,83,img/motor_2.png,83,motor,2,447,1,0,0,,
null,,385908,HierDy96kzfve8,77dc2ab8m7,ms1000203,iti,,null,img/motor_2.png,83,motor,,,,,,,
556,,386474,HierDy96kzfve8,77dc2ab8m7,ms1000203,motor,,76,img/motor_8.png,76,motor,8,448,1,0,0,,
null,,386585,HierDy96kzfve8,77dc2ab8m7,ms1000203,iti,,null,img/motor_8.png,76,motor,,,,,,,
585,,387180,HierDy96kzfve8,77dc2ab8m7,ms1000203,motor,,75,img/motor_7.png,75,motor,7,449,1,0,0,,
null,,387293,HierDy96kzfve8,77dc2ab8m7,ms1000203,iti,,null,img/motor_7.png,75,motor,,,,,,,
410,,387713,HierDy96kzfve8,77dc2ab8m7,ms1000203,motor,,76,img/motor_8.png,76,motor,8,450,1,0,0,,
null,,387825,HierDy96kzfve8,77dc2ab8m7,ms1000203,iti,,null,img/motor_8.png,76,motor,,,,,,,
368,,388204,HierDy96kzfve8,77dc2ab8m7,ms1000203,motor,,75,img/motor_7.png,75,motor,7,451,1,0,0,,
null,,388316,HierDy96kzfve8,77dc2ab8m7,ms1000203,iti,,null,img/motor_7.png,75,motor,,,,,,,
482,,388809,HierDy96kzfve8,77dc2ab8m7,ms1000203,motor,,65,img/motor_1.png,65,motor,1,452,1,0,0,,
null,,388922,HierDy96kzfve8,77dc2ab8m7,ms1000203,iti,,null,img/motor_1.png,65,motor,,,,,,,
1421,,390353,HierDy96kzfve8,77dc2ab8m7,ms1000203,motor,,74,img/motor_6.png,74,motor,6,453,1,0,0,,
null,,390465,HierDy96kzfve8,77dc2ab8m7,ms1000203,iti,,null,img/motor_6.png,74,motor,,,,,,,
298,,390775,HierDy96kzfve8,77dc2ab8m7,ms1000203,motor,,72,img/motor_5.png,72,motor,5,454,1,0,0,,
null,,390886,HierDy96kzfve8,77dc2ab8m7,ms1000203,iti,,null,img/motor_5.png,72,motor,,,,,,,
541,,391438,HierDy96kzfve8,77dc2ab8m7,ms1000203,motor,,68,img/motor_3.png,68,motor,3,455,1,0,0,,
null,,391549,HierDy96kzfve8,77dc2ab8m7,ms1000203,iti,,null,img/motor_3.png,68,motor,,,,,,,
530,,392091,HierDy96kzfve8,77dc2ab8m7,ms1000203,motor,,76,img/motor_8.png,76,motor,8,456,1,0,0,,
93,,392203,HierDy96kzfve8,77dc2ab8m7,ms1000203,iti,,76,img/motor_8.png,76,motor,,,,,,,
883,,393097,HierDy96kzfve8,77dc2ab8m7,ms1000203,motor,,75,img/motor_6.png,74,motor,6,457,0,1,0,,
240,,393347,HierDy96kzfve8,77dc2ab8m7,ms1000203,motorRepeat,,74,img/motor_6.png,74,motor,6,457,1,0,0,,
null,,393459,HierDy96kzfve8,77dc2ab8m7,ms1000203,iti,,null,img/motor_6.png,74,motor,,,,,,,
881,,394351,HierDy96kzfve8,77dc2ab8m7,ms1000203,motor,,70,img/motor_3.png,68,motor,3,458,0,1,0,,
348,,394710,HierDy96kzfve8,77dc2ab8m7,ms1000203,motorRepeat,,68,img/motor_3.png,68,motor,3,458,1,0,0,,
null,,394823,HierDy96kzfve8,77dc2ab8m7,ms1000203,iti,,null,img/motor_3.png,68,motor,,,,,,,
197,,395032,HierDy96kzfve8,77dc2ab8m7,ms1000203,motor,,70,img/motor_5.png,72,motor,5,459,0,1,0,,
318,,395361,HierDy96kzfve8,77dc2ab8m7,ms1000203,motorRepeat,,74,img/motor_5.png,72,motor,5,459,0,1,0,,
278,,395651,HierDy96kzfve8,77dc2ab8m7,ms1000203,motorRepeat,,72,img/motor_5.png,72,motor,5,459,1,0,0,,
null,,395763,HierDy96kzfve8,77dc2ab8m7,ms1000203,iti,,null,img/motor_5.png,72,motor,,,,,,,
606,,396380,HierDy96kzfve8,77dc2ab8m7,ms1000203,motor,,68,img/motor_3.png,68,motor,3,460,1,0,0,,
null,,396491,HierDy96kzfve8,77dc2ab8m7,ms1000203,iti,,null,img/motor_3.png,68,motor,,,,,,,
995,,397498,HierDy96kzfve8,77dc2ab8m7,ms1000203,motor,,72,img/motor_5.png,72,motor,5,461,1,0,0,,
null,,397611,HierDy96kzfve8,77dc2ab8m7,ms1000203,iti,,null,img/motor_5.png,72,motor,,,,,,,
860,,398481,HierDy96kzfve8,77dc2ab8m7,ms1000203,motor,,70,img/motor_4.png,70,motor,4,462,1,0,0,,
null,,398593,HierDy96kzfve8,77dc2ab8m7,ms1000203,iti,,null,img/motor_4.png,70,motor,,,,,,,
486,,399089,HierDy96kzfve8,77dc2ab8m7,ms1000203,motor,,65,img/motor_1.png,65,motor,1,463,1,0,0,,
null,,399201,HierDy96kzfve8,77dc2ab8m7,ms1000203,iti,,null,img/motor_1.png,65,motor,,,,,,,
580,,399792,HierDy96kzfve8,77dc2ab8m7,ms1000203,motor,,74,img/motor_6.png,74,motor,6,464,1,0,0,,
null,,399903,HierDy96kzfve8,77dc2ab8m7,ms1000203,iti,,null,img/motor_6.png,74,motor,,,,,,,
641,,400554,HierDy96kzfve8,77dc2ab8m7,ms1000203,motor,,65,img/motor_1.png,65,motor,1,465,1,0,0,,
null,,400666,HierDy96kzfve8,77dc2ab8m7,ms1000203,iti,,null,img/motor_1.png,65,motor,,,,,,,
534,,401213,HierDy96kzfve8,77dc2ab8m7,ms1000203,motor,,70,img/motor_4.png,70,motor,4,466,1,0,0,,
52,,401325,HierDy96kzfve8,77dc2ab8m7,ms1000203,iti,,70,img/motor_4.png,70,motor,,,,,,,
473,,401809,HierDy96kzfve8,77dc2ab8m7,ms1000203,motor,,74,img/motor_5.png,72,motor,5,467,0,1,0,,
310,,402130,HierDy96kzfve8,77dc2ab8m7,ms1000203,motorRepeat,,72,img/motor_5.png,72,motor,5,467,1,0,0,,
null,,402242,HierDy96kzfve8,77dc2ab8m7,ms1000203,iti,,null,img/motor_5.png,72,motor,,,,,,,
440,,402693,HierDy96kzfve8,77dc2ab8m7,ms1000203,motor,,74,img/motor_6.png,74,motor,6,468,1,0,0,,
null,,402804,HierDy96kzfve8,77dc2ab8m7,ms1000203,iti,,null,img/motor_6.png,74,motor,,,,,,,
650,,403466,HierDy96kzfve8,77dc2ab8m7,ms1000203,motor,,65,img/motor_2.png,83,motor,2,469,0,1,0,,
432,,403908,HierDy96kzfve8,77dc2ab8m7,ms1000203,motorRepeat,,83,img/motor_2.png,83,motor,2,469,1,0,0,,
null,,404020,HierDy96kzfve8,77dc2ab8m7,ms1000203,iti,,null,img/motor_2.png,83,motor,,,,,,,
435,,404467,HierDy96kzfve8,77dc2ab8m7,ms1000203,motor,,65,img/motor_1.png,65,motor,1,470,1,0,0,,
null,,404580,HierDy96kzfve8,77dc2ab8m7,ms1000203,iti,,null,img/motor_1.png,65,motor,,,,,,,
687,,405278,HierDy96kzfve8,77dc2ab8m7,ms1000203,motor,,68,img/motor_3.png,68,motor,3,471,1,0,0,,
null,,405389,HierDy96kzfve8,77dc2ab8m7,ms1000203,iti,,null,img/motor_3.png,68,motor,,,,,,,
573,,405972,HierDy96kzfve8,77dc2ab8m7,ms1000203,motor,,74,img/motor_6.png,74,motor,6,472,1,0,0,,
null,,406084,HierDy96kzfve8,77dc2ab8m7,ms1000203,iti,,null,img/motor_6.png,74,motor,,,,,,,
552,,406645,HierDy96kzfve8,77dc2ab8m7,ms1000203,motor,,75,img/motor_7.png,75,motor,7,473,1,0,0,,
null,,406758,HierDy96kzfve8,77dc2ab8m7,ms1000203,iti,,null,img/motor_7.png,75,motor,,,,,,,
308,,407077,HierDy96kzfve8,77dc2ab8m7,ms1000203,motor,,76,img/motor_8.png,76,motor,8,474,1,0,0,,
null,,407189,HierDy96kzfve8,77dc2ab8m7,ms1000203,iti,,null,img/motor_8.png,76,motor,,,,,,,
417,,407618,HierDy96kzfve8,77dc2ab8m7,ms1000203,motor,,65,img/motor_1.png,65,motor,1,475,1,0,0,,
null,,407729,HierDy96kzfve8,77dc2ab8m7,ms1000203,iti,,null,img/motor_1.png,65,motor,,,,,,,
350,,408089,HierDy96kzfve8,77dc2ab8m7,ms1000203,motor,,65,img/motor_1.png,65,motor,1,476,1,0,0,,
null,,408200,HierDy96kzfve8,77dc2ab8m7,ms1000203,iti,,null,img/motor_1.png,65,motor,,,,,,,
586,,408798,HierDy96kzfve8,77dc2ab8m7,ms1000203,motor,,72,img/motor_5.png,72,motor,5,477,1,0,0,,
null,,408910,HierDy96kzfve8,77dc2ab8m7,ms1000203,iti,,null,img/motor_5.png,72,motor,,,,,,,
434,,409355,HierDy96kzfve8,77dc2ab8m7,ms1000203,motor,,76,img/motor_8.png,76,motor,8,478,1,0,0,,
null,,409467,HierDy96kzfve8,77dc2ab8m7,ms1000203,iti,,null,img/motor_8.png,76,motor,,,,,,,
510,,409986,HierDy96kzfve8,77dc2ab8m7,ms1000203,motor,,65,img/motor_1.png,65,motor,1,479,1,0,0,,
null,,410098,HierDy96kzfve8,77dc2ab8m7,ms1000203,iti,,null,img/motor_1.png,65,motor,,,,,,,
506,,410614,HierDy96kzfve8,77dc2ab8m7,ms1000203,motor,,74,img/motor_6.png,74,motor,6,480,1,0,0,,
null,,410726,HierDy96kzfve8,77dc2ab8m7,ms1000203,iti,,null,img/motor_6.png,74,motor,,,,,,,
429,,411166,HierDy96kzfve8,77dc2ab8m7,ms1000203,motor,,72,img/motor_5.png,72,motor,5,481,1,0,0,,
null,,411280,HierDy96kzfve8,77dc2ab8m7,ms1000203,iti,,null,img/motor_5.png,72,motor,,,,,,,
504,,411794,HierDy96kzfve8,77dc2ab8m7,ms1000203,motor,,75,img/motor_7.png,75,motor,7,482,1,0,0,,
29,,411905,HierDy96kzfve8,77dc2ab8m7,ms1000203,iti,,76,img/motor_7.png,75,motor,,,,,,,
507,,412423,HierDy96kzfve8,77dc2ab8m7,ms1000203,motor,,76,img/motor_8.png,76,motor,8,483,1,0,0,,
null,,412534,HierDy96kzfve8,77dc2ab8m7,ms1000203,iti,,null,img/motor_8.png,76,motor,,,,,,,
527,,413073,HierDy96kzfve8,77dc2ab8m7,ms1000203,motor,,83,img/motor_2.png,83,motor,2,484,1,0,0,,
null,,413185,HierDy96kzfve8,77dc2ab8m7,ms1000203,iti,,null,img/motor_2.png,83,motor,,,,,,,
