rt,responses,time_elapsed,subject,prolificID,demoID,trialType,question_order,key_press,stim,corrresp,phase,stimNum,trialNum,corr,repeatTrial,motorSwitch,pracCounter,hierarchy
268264,"{""Q0"":""ms1000200""}",268293,HierDyd89f9utl,ektu78e09a,ms1000200,,,,,,,,,,,,,
2948,,271255,HierDyd89f9utl,ektu78e09a,ms1000200,,,,,,,,,,,,,
,,274810,HierDyd89f9utl,ektu78e09a,ms1000200,fullscreen,,,,,,,,,,,,
15009,"{""Vision"":""Yes"",""Handedness"":""Left"",""Gender"":""female""}",289836,HierDyd89f9utl,ektu78e09a,ms1000200,,"[0,1,2]",,,,,,,,,,,
5356,"{""Q0"":""20""}",295208,HierDyd89f9utl,ektu78e09a,ms1000200,,,,,,,,,,,,,
84353,,379582,HierDyd89f9utl,ektu78e09a,ms1000200,,,,,,,,,,,,,
1218,,380816,HierDyd89f9utl,ektu78e09a,ms1000200,motor,,76,img/motor_8.png,76,motor,8,1,1,0,0,,
null,,380927,HierDyd89f9utl,ektu78e09a,ms1000200,iti,,null,img/motor_8.png,76,motor,,,,,,,
675,,381616,HierDyd89f9utl,ektu78e09a,ms1000200,motor,,72,img/motor_5.png,72,motor,5,2,1,0,0,,
null,,381732,HierDyd89f9utl,ektu78e09a,ms1000200,iti,,null,img/motor_5.png,72,motor,,,,,,,
660,,382397,HierDyd89f9utl,ektu78e09a,ms1000200,motor,,70,img/motor_4.png,70,motor,4,3,1,0,0,,
null,,382506,HierDyd89f9utl,ektu78e09a,ms1000200,iti,,null,img/motor_4.png,70,motor,,,,,,,
591,,383112,HierDyd89f9utl,ektu78e09a,ms1000200,motor,,65,img/motor_1.png,65,motor,1,4,1,0,0,,
null,,383220,HierDyd89f9utl,ektu78e09a,ms1000200,iti,,null,img/motor_1.png,65,motor,,,,,,,
773,,384008,HierDyd89f9utl,ektu78e09a,ms1000200,motor,,74,img/motor_6.png,74,motor,6,5,1,0,0,,
null,,384116,HierDyd89f9utl,ektu78e09a,ms1000200,iti,,null,img/motor_6.png,74,motor,,,,,,,
525,,384656,HierDyd89f9utl,ektu78e09a,ms1000200,motor,,75,img/motor_7.png,75,motor,7,6,1,0,0,,
null,,384771,HierDyd89f9utl,ektu78e09a,ms1000200,iti,,null,img/motor_7.png,75,motor,,,,,,,
694,,385473,HierDyd89f9utl,ektu78e09a,ms1000200,motor,,74,img/motor_6.png,74,motor,6,7,1,0,0,,
null,,385581,HierDyd89f9utl,ektu78e09a,ms1000200,iti,,null,img/motor_6.png,74,motor,,,,,,,
572,,386162,HierDyd89f9utl,ektu78e09a,ms1000200,motor,,70,img/motor_4.png,70,motor,4,8,1,0,0,,
null,,386276,HierDyd89f9utl,ektu78e09a,ms1000200,iti,,null,img/motor_4.png,70,motor,,,,,,,
612,,386904,HierDyd89f9utl,ektu78e09a,ms1000200,motor,,75,img/motor_7.png,75,motor,7,9,1,0,0,,
null,,387013,HierDyd89f9utl,ektu78e09a,ms1000200,iti,,null,img/motor_7.png,75,motor,,,,,,,
470,,387489,HierDyd89f9utl,ektu78e09a,ms1000200,motor,,76,img/motor_8.png,76,motor,8,10,1,0,0,,
null,,387599,HierDyd89f9utl,ektu78e09a,ms1000200,iti,,null,img/motor_8.png,76,motor,,,,,,,
563,,388169,HierDyd89f9utl,ektu78e09a,ms1000200,motor,,70,img/motor_4.png,70,motor,4,11,1,0,0,,
null,,388277,HierDyd89f9utl,ektu78e09a,ms1000200,iti,,null,img/motor_4.png,70,motor,,,,,,,
548,,388840,HierDyd89f9utl,ektu78e09a,ms1000200,motor,,74,img/motor_6.png,74,motor,6,12,1,0,0,,
null,,388949,HierDyd89f9utl,ektu78e09a,ms1000200,iti,,null,img/motor_6.png,74,motor,,,,,,,
405,,389368,HierDyd89f9utl,ektu78e09a,ms1000200,motor,,72,img/motor_5.png,72,motor,5,13,1,0,0,,
null,,389476,HierDyd89f9utl,ektu78e09a,ms1000200,iti,,null,img/motor_5.png,72,motor,,,,,,,
502,,389998,HierDyd89f9utl,ektu78e09a,ms1000200,motor,,75,img/motor_7.png,75,motor,7,14,1,0,0,,
null,,390107,HierDyd89f9utl,ektu78e09a,ms1000200,iti,,null,img/motor_7.png,75,motor,,,,,,,
623,,390737,HierDyd89f9utl,ektu78e09a,ms1000200,motor,,83,img/motor_2.png,83,motor,2,15,1,0,0,,
null,,390852,HierDyd89f9utl,ektu78e09a,ms1000200,iti,,null,img/motor_2.png,83,motor,,,,,,,
717,,391577,HierDyd89f9utl,ektu78e09a,ms1000200,motor,,75,img/motor_7.png,75,motor,7,16,1,0,0,,
null,,391686,HierDyd89f9utl,ektu78e09a,ms1000200,iti,,null,img/motor_7.png,75,motor,,,,,,,
595,,392290,HierDyd89f9utl,ektu78e09a,ms1000200,motor,,83,img/motor_2.png,83,motor,2,17,1,0,0,,
null,,392397,HierDyd89f9utl,ektu78e09a,ms1000200,iti,,null,img/motor_2.png,83,motor,,,,,,,
620,,393026,HierDyd89f9utl,ektu78e09a,ms1000200,motor,,72,img/motor_5.png,72,motor,5,18,1,0,0,,
null,,393133,HierDyd89f9utl,ektu78e09a,ms1000200,iti,,null,img/motor_5.png,72,motor,,,,,,,
588,,393730,HierDyd89f9utl,ektu78e09a,ms1000200,motor,,83,img/motor_2.png,83,motor,2,19,1,0,0,,
null,,393842,HierDyd89f9utl,ektu78e09a,ms1000200,iti,,null,img/motor_2.png,83,motor,,,,,,,
607,,394458,HierDyd89f9utl,ektu78e09a,ms1000200,motor,,76,img/motor_8.png,76,motor,8,20,1,0,0,,
null,,394566,HierDyd89f9utl,ektu78e09a,ms1000200,iti,,null,img/motor_8.png,76,motor,,,,,,,
500,,395074,HierDyd89f9utl,ektu78e09a,ms1000200,motor,,76,img/motor_8.png,76,motor,8,21,1,0,0,,
null,,395187,HierDyd89f9utl,ektu78e09a,ms1000200,iti,,null,img/motor_8.png,76,motor,,,,,,,
516,,395714,HierDyd89f9utl,ektu78e09a,ms1000200,motor,,72,img/motor_5.png,72,motor,5,22,1,0,0,,
null,,395822,HierDyd89f9utl,ektu78e09a,ms1000200,iti,,null,img/motor_5.png,72,motor,,,,,,,
564,,396401,HierDyd89f9utl,ektu78e09a,ms1000200,motor,,75,img/motor_7.png,75,motor,7,23,1,0,0,,
null,,396510,HierDyd89f9utl,ektu78e09a,ms1000200,iti,,null,img/motor_7.png,75,motor,,,,,,,
565,,397081,HierDyd89f9utl,ektu78e09a,ms1000200,motor,,74,img/motor_6.png,74,motor,6,24,1,0,0,,
null,,397196,HierDyd89f9utl,ektu78e09a,ms1000200,iti,,null,img/motor_6.png,74,motor,,,,,,,
461,,397665,HierDyd89f9utl,ektu78e09a,ms1000200,motor,,76,img/motor_8.png,76,motor,8,25,1,0,0,,
null,,397774,HierDyd89f9utl,ektu78e09a,ms1000200,iti,,null,img/motor_8.png,76,motor,,,,,,,
603,,398385,HierDyd89f9utl,ektu78e09a,ms1000200,motor,,74,img/motor_6.png,74,motor,6,26,1,0,0,,
null,,398494,HierDyd89f9utl,ektu78e09a,ms1000200,iti,,null,img/motor_6.png,74,motor,,,,,,,
428,,398936,HierDyd89f9utl,ektu78e09a,ms1000200,motor,,75,img/motor_7.png,75,motor,7,27,1,0,0,,
null,,399044,HierDyd89f9utl,ektu78e09a,ms1000200,iti,,null,img/motor_7.png,75,motor,,,,,,,
429,,399482,HierDyd89f9utl,ektu78e09a,ms1000200,motor,,70,img/motor_4.png,70,motor,4,28,1,0,0,,
null,,399590,HierDyd89f9utl,ektu78e09a,ms1000200,iti,,null,img/motor_4.png,70,motor,,,,,,,
475,,400073,HierDyd89f9utl,ektu78e09a,ms1000200,motor,,65,img/motor_1.png,65,motor,1,29,1,0,0,,
null,,400181,HierDyd89f9utl,ektu78e09a,ms1000200,iti,,null,img/motor_1.png,65,motor,,,,,,,
612,,400802,HierDyd89f9utl,ektu78e09a,ms1000200,motor,,75,img/motor_7.png,75,motor,7,30,1,0,0,,
null,,400916,HierDyd89f9utl,ektu78e09a,ms1000200,iti,,null,img/motor_7.png,75,motor,,,,,,,
477,,401402,HierDyd89f9utl,ektu78e09a,ms1000200,motor,,76,img/motor_8.png,76,motor,8,31,1,0,0,,
null,,401516,HierDyd89f9utl,ektu78e09a,ms1000200,iti,,null,img/motor_8.png,76,motor,,,,,,,
501,,402026,HierDyd89f9utl,ektu78e09a,ms1000200,motor,,65,img/motor_1.png,65,motor,1,32,1,0,0,,
null,,402134,HierDyd89f9utl,ektu78e09a,ms1000200,iti,,null,img/motor_1.png,65,motor,,,,,,,
459,,402602,HierDyd89f9utl,ektu78e09a,ms1000200,motor,,76,img/motor_8.png,76,motor,8,33,1,0,0,,
null,,402709,HierDyd89f9utl,ektu78e09a,ms1000200,iti,,null,img/motor_8.png,76,motor,,,,,,,
844,,403561,HierDyd89f9utl,ektu78e09a,ms1000200,motor,,70,img/motor_4.png,70,motor,4,34,1,0,0,,
null,,403668,HierDyd89f9utl,ektu78e09a,ms1000200,iti,,null,img/motor_4.png,70,motor,,,,,,,
766,,404442,HierDyd89f9utl,ektu78e09a,ms1000200,motor,,74,img/motor_6.png,74,motor,6,35,1,0,0,,
null,,404549,HierDyd89f9utl,ektu78e09a,ms1000200,iti,,null,img/motor_6.png,74,motor,,,,,,,
460,,405018,HierDyd89f9utl,ektu78e09a,ms1000200,motor,,74,img/motor_6.png,74,motor,6,36,1,0,0,,
null,,405132,HierDyd89f9utl,ektu78e09a,ms1000200,iti,,null,img/motor_6.png,74,motor,,,,,,,
541,,405682,HierDyd89f9utl,ektu78e09a,ms1000200,motor,,65,img/motor_1.png,65,motor,1,37,1,0,0,,
null,,405790,HierDyd89f9utl,ektu78e09a,ms1000200,iti,,null,img/motor_1.png,65,motor,,,,,,,
635,,406433,HierDyd89f9utl,ektu78e09a,ms1000200,motor,,75,img/motor_7.png,75,motor,7,38,1,0,0,,
null,,406548,HierDyd89f9utl,ektu78e09a,ms1000200,iti,,null,img/motor_7.png,75,motor,,,,,,,
829,,407385,HierDyd89f9utl,ektu78e09a,ms1000200,motor,,70,img/motor_4.png,70,motor,4,39,1,0,0,,
null,,407493,HierDyd89f9utl,ektu78e09a,ms1000200,iti,,null,img/motor_4.png,70,motor,,,,,,,
492,,408000,HierDyd89f9utl,ektu78e09a,ms1000200,motor,,83,img/motor_2.png,83,motor,2,40,1,0,0,,
null,,408108,HierDyd89f9utl,ektu78e09a,ms1000200,iti,,null,img/motor_2.png,83,motor,,,,,,,
709,,408832,HierDyd89f9utl,ektu78e09a,ms1000200,motor,,68,img/motor_3.png,68,motor,3,41,1,0,0,,
null,,408941,HierDyd89f9utl,ektu78e09a,ms1000200,iti,,null,img/motor_3.png,68,motor,,,,,,,
676,,409632,HierDyd89f9utl,ektu78e09a,ms1000200,motor,,72,img/motor_5.png,72,motor,5,42,1,0,0,,
null,,409742,HierDyd89f9utl,ektu78e09a,ms1000200,iti,,null,img/motor_5.png,72,motor,,,,,,,
452,,410201,HierDyd89f9utl,ektu78e09a,ms1000200,motor,,76,img/motor_8.png,76,motor,8,43,1,0,0,,
null,,410315,HierDyd89f9utl,ektu78e09a,ms1000200,iti,,null,img/motor_8.png,76,motor,,,,,,,
702,,411025,HierDyd89f9utl,ektu78e09a,ms1000200,motor,,72,img/motor_5.png,72,motor,5,44,1,0,0,,
null,,411134,HierDyd89f9utl,ektu78e09a,ms1000200,iti,,null,img/motor_5.png,72,motor,,,,,,,
484,,411624,HierDyd89f9utl,ektu78e09a,ms1000200,motor,,65,img/motor_1.png,65,motor,1,45,1,0,0,,
null,,411733,HierDyd89f9utl,ektu78e09a,ms1000200,iti,,null,img/motor_1.png,65,motor,,,,,,,
486,,412225,HierDyd89f9utl,ektu78e09a,ms1000200,motor,,76,img/motor_8.png,76,motor,8,46,1,0,0,,
null,,412333,HierDyd89f9utl,ektu78e09a,ms1000200,iti,,null,img/motor_8.png,76,motor,,,,,,,
685,,413026,HierDyd89f9utl,ektu78e09a,ms1000200,motor,,83,img/motor_2.png,83,motor,2,47,1,0,0,,
null,,413140,HierDyd89f9utl,ektu78e09a,ms1000200,iti,,null,img/motor_2.png,83,motor,,,,,,,
604,,413754,HierDyd89f9utl,ektu78e09a,ms1000200,motor,,75,img/motor_7.png,75,motor,7,48,1,0,0,,
null,,413862,HierDyd89f9utl,ektu78e09a,ms1000200,iti,,null,img/motor_7.png,75,motor,,,,,,,
436,,414312,HierDyd89f9utl,ektu78e09a,ms1000200,motor,,75,img/motor_7.png,75,motor,7,49,1,0,0,,
null,,414428,HierDyd89f9utl,ektu78e09a,ms1000200,iti,,null,img/motor_7.png,75,motor,,,,,,,
558,,414993,HierDyd89f9utl,ektu78e09a,ms1000200,motor,,74,img/motor_6.png,74,motor,6,50,1,0,0,,
null,,415102,HierDyd89f9utl,ektu78e09a,ms1000200,iti,,null,img/motor_6.png,74,motor,,,,,,,
492,,415601,HierDyd89f9utl,ektu78e09a,ms1000200,motor,,75,img/motor_7.png,75,motor,7,51,1,0,0,,
null,,415710,HierDyd89f9utl,ektu78e09a,ms1000200,iti,,null,img/motor_7.png,75,motor,,,,,,,
924,,416642,HierDyd89f9utl,ektu78e09a,ms1000200,motor,,68,img/motor_3.png,68,motor,3,52,1,0,0,,
null,,416756,HierDyd89f9utl,ektu78e09a,ms1000200,iti,,null,img/motor_3.png,68,motor,,,,,,,
582,,417346,HierDyd89f9utl,ektu78e09a,ms1000200,motor,,70,img/motor_4.png,70,motor,4,53,1,0,0,,
null,,417453,HierDyd89f9utl,ektu78e09a,ms1000200,iti,,null,img/motor_4.png,70,motor,,,,,,,
460,,417921,HierDyd89f9utl,ektu78e09a,ms1000200,motor,,70,img/motor_4.png,70,motor,4,54,1,0,0,,
null,,418036,HierDyd89f9utl,ektu78e09a,ms1000200,iti,,null,img/motor_4.png,70,motor,,,,,,,
533,,418578,HierDyd89f9utl,ektu78e09a,ms1000200,motor,,83,img/motor_2.png,83,motor,2,55,1,0,0,,
null,,418686,HierDyd89f9utl,ektu78e09a,ms1000200,iti,,null,img/motor_2.png,83,motor,,,,,,,
796,,419489,HierDyd89f9utl,ektu78e09a,ms1000200,motor,,74,img/motor_6.png,74,motor,6,56,1,0,0,,
null,,419598,HierDyd89f9utl,ektu78e09a,ms1000200,iti,,null,img/motor_6.png,74,motor,,,,,,,
597,,420201,HierDyd89f9utl,ektu78e09a,ms1000200,motor,,83,img/motor_2.png,83,motor,2,57,1,0,0,,
null,,420309,HierDyd89f9utl,ektu78e09a,ms1000200,iti,,null,img/motor_2.png,83,motor,,,,,,,
573,,420896,HierDyd89f9utl,ektu78e09a,ms1000200,motor,,65,img/motor_1.png,65,motor,1,58,1,0,0,,
null,,421005,HierDyd89f9utl,ektu78e09a,ms1000200,iti,,null,img/motor_1.png,65,motor,,,,,,,
654,,421665,HierDyd89f9utl,ektu78e09a,ms1000200,motor,,68,img/motor_3.png,68,motor,3,59,1,0,0,,
null,,421774,HierDyd89f9utl,ektu78e09a,ms1000200,iti,,null,img/motor_3.png,68,motor,,,,,,,
525,,422305,HierDyd89f9utl,ektu78e09a,ms1000200,motor,,76,img/motor_8.png,76,motor,8,60,1,0,0,,
null,,422420,HierDyd89f9utl,ektu78e09a,ms1000200,iti,,null,img/motor_8.png,76,motor,,,,,,,
676,,423106,HierDyd89f9utl,ektu78e09a,ms1000200,motor,,75,img/motor_7.png,75,motor,7,61,1,0,0,,
null,,423214,HierDyd89f9utl,ektu78e09a,ms1000200,iti,,null,img/motor_7.png,75,motor,,,,,,,
555,,423778,HierDyd89f9utl,ektu78e09a,ms1000200,motor,,83,img/motor_2.png,83,motor,2,62,1,0,0,,
null,,423886,HierDyd89f9utl,ektu78e09a,ms1000200,iti,,null,img/motor_2.png,83,motor,,,,,,,
540,,424433,HierDyd89f9utl,ektu78e09a,ms1000200,motor,,68,img/motor_3.png,68,motor,3,63,1,0,0,,
null,,424542,HierDyd89f9utl,ektu78e09a,ms1000200,iti,,null,img/motor_3.png,68,motor,,,,,,,
556,,425106,HierDyd89f9utl,ektu78e09a,ms1000200,motor,,76,img/motor_8.png,76,motor,8,64,1,0,0,,
null,,425220,HierDyd89f9utl,ektu78e09a,ms1000200,iti,,null,img/motor_8.png,76,motor,,,,,,,
677,,425907,HierDyd89f9utl,ektu78e09a,ms1000200,motor,,68,img/motor_3.png,68,motor,3,65,1,0,0,,
null,,426020,HierDyd89f9utl,ektu78e09a,ms1000200,iti,,null,img/motor_3.png,68,motor,,,,,,,
653,,426681,HierDyd89f9utl,ektu78e09a,ms1000200,motor,,74,img/motor_6.png,74,motor,6,66,1,0,0,,
null,,426789,HierDyd89f9utl,ektu78e09a,ms1000200,iti,,null,img/motor_6.png,74,motor,,,,,,,
572,,427370,HierDyd89f9utl,ektu78e09a,ms1000200,motor,,70,img/motor_4.png,70,motor,4,67,1,0,0,,
null,,427484,HierDyd89f9utl,ektu78e09a,ms1000200,iti,,null,img/motor_4.png,70,motor,,,,,,,
462,,427954,HierDyd89f9utl,ektu78e09a,ms1000200,motor,,76,img/motor_8.png,76,motor,8,68,1,0,0,,
null,,428063,HierDyd89f9utl,ektu78e09a,ms1000200,iti,,null,img/motor_8.png,76,motor,,,,,,,
691,,428762,HierDyd89f9utl,ektu78e09a,ms1000200,motor,,72,img/motor_5.png,72,motor,5,69,1,0,0,,
null,,428876,HierDyd89f9utl,ektu78e09a,ms1000200,iti,,null,img/motor_5.png,72,motor,,,,,,,
485,,429376,HierDyd89f9utl,ektu78e09a,ms1000200,motor,,65,img/motor_1.png,65,motor,1,70,1,0,0,,
null,,429491,HierDyd89f9utl,ektu78e09a,ms1000200,iti,,null,img/motor_1.png,65,motor,,,,,,,
622,,430122,HierDyd89f9utl,ektu78e09a,ms1000200,motor,,72,img/motor_5.png,72,motor,5,71,1,0,0,,
null,,430229,HierDyd89f9utl,ektu78e09a,ms1000200,iti,,null,img/motor_5.png,72,motor,,,,,,,
596,,430840,HierDyd89f9utl,ektu78e09a,ms1000200,motor,,74,img/motor_6.png,74,motor,6,72,1,0,0,,
null,,430955,HierDyd89f9utl,ektu78e09a,ms1000200,iti,,null,img/motor_6.png,74,motor,,,,,,,
823,,431786,HierDyd89f9utl,ektu78e09a,ms1000200,motor,,68,img/motor_3.png,68,motor,3,73,1,0,0,,
null,,431894,HierDyd89f9utl,ektu78e09a,ms1000200,iti,,null,img/motor_3.png,68,motor,,,,,,,
395,,432298,HierDyd89f9utl,ektu78e09a,ms1000200,motor,,83,img/motor_2.png,83,motor,2,74,1,0,0,,
null,,432412,HierDyd89f9utl,ektu78e09a,ms1000200,iti,,null,img/motor_2.png,83,motor,,,,,,,
645,,433072,HierDyd89f9utl,ektu78e09a,ms1000200,motor,,70,img/motor_4.png,70,motor,4,75,1,0,0,,
null,,433187,HierDyd89f9utl,ektu78e09a,ms1000200,iti,,null,img/motor_4.png,70,motor,,,,,,,
511,,433712,HierDyd89f9utl,ektu78e09a,ms1000200,motor,,83,img/motor_2.png,83,motor,2,76,1,0,0,,
null,,433827,HierDyd89f9utl,ektu78e09a,ms1000200,iti,,null,img/motor_2.png,83,motor,,,,,,,
374,,434216,HierDyd89f9utl,ektu78e09a,ms1000200,motor,,65,img/motor_1.png,65,motor,1,77,1,0,0,,
null,,434325,HierDyd89f9utl,ektu78e09a,ms1000200,iti,,null,img/motor_1.png,65,motor,,,,,,,
453,,434786,HierDyd89f9utl,ektu78e09a,ms1000200,motor,,76,img/motor_8.png,76,motor,8,78,1,0,0,,
null,,434894,HierDyd89f9utl,ektu78e09a,ms1000200,iti,,null,img/motor_8.png,76,motor,,,,,,,
428,,435330,HierDyd89f9utl,ektu78e09a,ms1000200,motor,,65,img/motor_1.png,65,motor,1,79,1,0,0,,
null,,435439,HierDyd89f9utl,ektu78e09a,ms1000200,iti,,null,img/motor_1.png,65,motor,,,,,,,
539,,435986,HierDyd89f9utl,ektu78e09a,ms1000200,motor,,70,img/motor_4.png,70,motor,4,80,1,0,0,,
null,,436100,HierDyd89f9utl,ektu78e09a,ms1000200,iti,,null,img/motor_4.png,70,motor,,,,,,,
396,,436507,HierDyd89f9utl,ektu78e09a,ms1000200,motor,,65,img/motor_1.png,65,motor,1,81,1,0,0,,
null,,436615,HierDyd89f9utl,ektu78e09a,ms1000200,iti,,null,img/motor_1.png,65,motor,,,,,,,
531,,437154,HierDyd89f9utl,ektu78e09a,ms1000200,motor,,75,img/motor_7.png,75,motor,7,82,1,0,0,,
null,,437262,HierDyd89f9utl,ektu78e09a,ms1000200,iti,,null,img/motor_7.png,75,motor,,,,,,,
356,,437626,HierDyd89f9utl,ektu78e09a,ms1000200,motor,,75,img/motor_7.png,75,motor,7,83,1,0,0,,
null,,437735,HierDyd89f9utl,ektu78e09a,ms1000200,iti,,null,img/motor_7.png,75,motor,,,,,,,
388,,438136,HierDyd89f9utl,ektu78e09a,ms1000200,motor,,65,img/motor_1.png,65,motor,1,84,1,0,0,,
null,,438251,HierDyd89f9utl,ektu78e09a,ms1000200,iti,,null,img/motor_1.png,65,motor,,,,,,,
534,,438793,HierDyd89f9utl,ektu78e09a,ms1000200,motor,,83,img/motor_2.png,83,motor,2,85,1,0,0,,
null,,438902,HierDyd89f9utl,ektu78e09a,ms1000200,iti,,null,img/motor_2.png,83,motor,,,,,,,
501,,439416,HierDyd89f9utl,ektu78e09a,ms1000200,motor,,68,img/motor_3.png,68,motor,3,86,1,0,0,,
null,,439531,HierDyd89f9utl,ektu78e09a,ms1000200,iti,,null,img/motor_3.png,68,motor,,,,,,,
566,,440106,HierDyd89f9utl,ektu78e09a,ms1000200,motor,,72,img/motor_5.png,72,motor,5,87,1,0,0,,
null,,440214,HierDyd89f9utl,ektu78e09a,ms1000200,iti,,null,img/motor_5.png,72,motor,,,,,,,
757,,440978,HierDyd89f9utl,ektu78e09a,ms1000200,motor,,74,img/motor_6.png,74,motor,6,88,1,0,0,,
null,,441087,HierDyd89f9utl,ektu78e09a,ms1000200,iti,,null,img/motor_6.png,74,motor,,,,,,,
445,,441538,HierDyd89f9utl,ektu78e09a,ms1000200,motor,,76,img/motor_8.png,76,motor,8,89,1,0,0,,
null,,441652,HierDyd89f9utl,ektu78e09a,ms1000200,iti,,null,img/motor_8.png,76,motor,,,,,,,
557,,442218,HierDyd89f9utl,ektu78e09a,ms1000200,motor,,83,img/motor_2.png,83,motor,2,90,1,0,0,,
null,,442326,HierDyd89f9utl,ektu78e09a,ms1000200,iti,,null,img/motor_2.png,83,motor,,,,,,,
532,,442866,HierDyd89f9utl,ektu78e09a,ms1000200,motor,,72,img/motor_5.png,72,motor,5,91,1,0,0,,
null,,442980,HierDyd89f9utl,ektu78e09a,ms1000200,iti,,null,img/motor_5.png,72,motor,,,,,,,
582,,443570,HierDyd89f9utl,ektu78e09a,ms1000200,motor,,83,img/motor_3.png,68,motor,3,92,0,1,0,,
353,,443930,HierDyd89f9utl,ektu78e09a,ms1000200,motorRepeat,,68,img/motor_3.png,68,motor,3,92,1,0,0,,
null,,444039,HierDyd89f9utl,ektu78e09a,ms1000200,iti,,null,img/motor_3.png,68,motor,,,,,,,
651,,444698,HierDyd89f9utl,ektu78e09a,ms1000200,motor,,83,img/motor_2.png,83,motor,2,93,1,0,0,,
null,,444806,HierDyd89f9utl,ektu78e09a,ms1000200,iti,,null,img/motor_2.png,83,motor,,,,,,,
740,,445554,HierDyd89f9utl,ektu78e09a,ms1000200,motor,,72,img/motor_5.png,72,motor,5,94,1,0,0,,
null,,445663,HierDyd89f9utl,ektu78e09a,ms1000200,iti,,null,img/motor_5.png,72,motor,,,,,,,
429,,446098,HierDyd89f9utl,ektu78e09a,ms1000200,motor,,76,img/motor_8.png,76,motor,8,95,1,0,0,,
null,,446207,HierDyd89f9utl,ektu78e09a,ms1000200,iti,,null,img/motor_8.png,76,motor,,,,,,,
419,,446633,HierDyd89f9utl,ektu78e09a,ms1000200,motor,,65,img/motor_1.png,65,motor,1,96,1,0,0,,
null,,446741,HierDyd89f9utl,ektu78e09a,ms1000200,iti,,null,img/motor_1.png,65,motor,,,,,,,
525,,447274,HierDyd89f9utl,ektu78e09a,ms1000200,motor,,72,img/motor_5.png,72,motor,5,97,1,0,0,,
null,,447389,HierDyd89f9utl,ektu78e09a,ms1000200,iti,,null,img/motor_5.png,72,motor,,,,,,,
589,,447985,HierDyd89f9utl,ektu78e09a,ms1000200,motor,,83,img/motor_2.png,83,motor,2,98,1,0,0,,
null,,448099,HierDyd89f9utl,ektu78e09a,ms1000200,iti,,null,img/motor_2.png,83,motor,,,,,,,
846,,448954,HierDyd89f9utl,ektu78e09a,ms1000200,motor,,83,img/motor_2.png,83,motor,2,99,1,0,0,,
null,,449062,HierDyd89f9utl,ektu78e09a,ms1000200,iti,,null,img/motor_2.png,83,motor,,,,,,,
485,,449553,HierDyd89f9utl,ektu78e09a,ms1000200,motor,,76,img/motor_8.png,76,motor,8,100,1,0,0,,
null,,449661,HierDyd89f9utl,ektu78e09a,ms1000200,iti,,null,img/motor_8.png,76,motor,,,,,,,
501,,450170,HierDyd89f9utl,ektu78e09a,ms1000200,motor,,75,img/motor_7.png,75,motor,7,101,1,0,0,,
null,,450284,HierDyd89f9utl,ektu78e09a,ms1000200,iti,,null,img/motor_7.png,75,motor,,,,,,,
423,,450714,HierDyd89f9utl,ektu78e09a,ms1000200,motor,,65,img/motor_1.png,65,motor,1,102,1,0,0,,
null,,450823,HierDyd89f9utl,ektu78e09a,ms1000200,iti,,null,img/motor_1.png,65,motor,,,,,,,
515,,451346,HierDyd89f9utl,ektu78e09a,ms1000200,motor,,76,img/motor_8.png,76,motor,8,103,1,0,0,,
null,,451454,HierDyd89f9utl,ektu78e09a,ms1000200,iti,,null,img/motor_8.png,76,motor,,,,,,,
508,,451969,HierDyd89f9utl,ektu78e09a,ms1000200,motor,,83,img/motor_2.png,83,motor,2,104,1,0,0,,
null,,452077,HierDyd89f9utl,ektu78e09a,ms1000200,iti,,null,img/motor_2.png,83,motor,,,,,,,
716,,452808,HierDyd89f9utl,ektu78e09a,ms1000200,motor,,70,img/motor_4.png,70,motor,4,105,1,0,0,,
null,,452923,HierDyd89f9utl,ektu78e09a,ms1000200,iti,,null,img/motor_4.png,70,motor,,,,,,,
455,,453392,HierDyd89f9utl,ektu78e09a,ms1000200,motor,,76,img/motor_8.png,76,motor,8,106,1,0,0,,
null,,453501,HierDyd89f9utl,ektu78e09a,ms1000200,iti,,null,img/motor_8.png,76,motor,,,,,,,
381,,453896,HierDyd89f9utl,ektu78e09a,ms1000200,motor,,76,img/motor_8.png,76,motor,8,107,1,0,0,,
null,,454011,HierDyd89f9utl,ektu78e09a,ms1000200,iti,,null,img/motor_8.png,76,motor,,,,,,,
630,,454662,HierDyd89f9utl,ektu78e09a,ms1000200,motor,,83,img/motor_2.png,83,motor,2,108,1,0,0,,
null,,454778,HierDyd89f9utl,ektu78e09a,ms1000200,iti,,null,img/motor_2.png,83,motor,,,,,,,
397,,455186,HierDyd89f9utl,ektu78e09a,ms1000200,motor,,76,img/motor_8.png,76,motor,8,109,1,0,0,,
null,,455294,HierDyd89f9utl,ektu78e09a,ms1000200,iti,,null,img/motor_8.png,76,motor,,,,,,,
539,,455842,HierDyd89f9utl,ektu78e09a,ms1000200,motor,,65,img/motor_1.png,65,motor,1,110,1,0,0,,
null,,455958,HierDyd89f9utl,ektu78e09a,ms1000200,iti,,null,img/motor_1.png,65,motor,,,,,,,
516,,456481,HierDyd89f9utl,ektu78e09a,ms1000200,motor,,70,img/motor_4.png,70,motor,4,111,1,0,0,,
null,,456596,HierDyd89f9utl,ektu78e09a,ms1000200,iti,,null,img/motor_4.png,70,motor,,,,,,,
677,,457281,HierDyd89f9utl,ektu78e09a,ms1000200,motor,,70,img/motor_5.png,72,motor,5,112,0,1,0,,
121,,457410,HierDyd89f9utl,ektu78e09a,ms1000200,motorRepeat,,72,img/motor_5.png,72,motor,5,112,1,0,0,,
null,,457524,HierDyd89f9utl,ektu78e09a,ms1000200,iti,,null,img/motor_5.png,72,motor,,,,,,,
612,,458145,HierDyd89f9utl,ektu78e09a,ms1000200,motor,,74,img/motor_7.png,75,motor,7,113,0,1,0,,
297,,458449,HierDyd89f9utl,ektu78e09a,ms1000200,motorRepeat,,75,img/motor_7.png,75,motor,7,113,1,0,0,,
null,,458557,HierDyd89f9utl,ektu78e09a,ms1000200,iti,,null,img/motor_7.png,75,motor,,,,,,,
724,,459289,HierDyd89f9utl,ektu78e09a,ms1000200,motor,,83,img/motor_2.png,83,motor,2,114,1,0,0,,
null,,459398,HierDyd89f9utl,ektu78e09a,ms1000200,iti,,null,img/motor_2.png,83,motor,,,,,,,
476,,459882,HierDyd89f9utl,ektu78e09a,ms1000200,motor,,65,img/motor_1.png,65,motor,1,115,1,0,0,,
null,,459990,HierDyd89f9utl,ektu78e09a,ms1000200,iti,,null,img/motor_1.png,65,motor,,,,,,,
708,,460706,HierDyd89f9utl,ektu78e09a,ms1000200,motor,,74,img/motor_6.png,74,motor,6,116,1,0,0,,
null,,460814,HierDyd89f9utl,ektu78e09a,ms1000200,iti,,null,img/motor_6.png,74,motor,,,,,,,
364,,461185,HierDyd89f9utl,ektu78e09a,ms1000200,motor,,74,img/motor_6.png,74,motor,6,117,1,0,0,,
null,,461299,HierDyd89f9utl,ektu78e09a,ms1000200,iti,,null,img/motor_6.png,74,motor,,,,,,,
551,,461857,HierDyd89f9utl,ektu78e09a,ms1000200,motor,,65,img/motor_1.png,65,motor,1,118,1,0,0,,
null,,461973,HierDyd89f9utl,ektu78e09a,ms1000200,iti,,null,img/motor_1.png,65,motor,,,,,,,
533,,462514,HierDyd89f9utl,ektu78e09a,ms1000200,motor,,70,img/motor_4.png,70,motor,4,119,1,0,0,,
null,,462623,HierDyd89f9utl,ektu78e09a,ms1000200,iti,,null,img/motor_4.png,70,motor,,,,,,,
515,,463153,HierDyd89f9utl,ektu78e09a,ms1000200,motor,,83,img/motor_3.png,68,motor,3,120,0,1,0,,
328,,463490,HierDyd89f9utl,ektu78e09a,ms1000200,motorRepeat,,68,img/motor_3.png,68,motor,3,120,1,0,0,,
null,,463603,HierDyd89f9utl,ektu78e09a,ms1000200,iti,,null,img/motor_3.png,68,motor,,,,,,,
718,,464330,HierDyd89f9utl,ektu78e09a,ms1000200,motor,,75,img/motor_7.png,75,motor,7,121,1,0,0,,
null,,464444,HierDyd89f9utl,ektu78e09a,ms1000200,iti,,null,img/motor_7.png,75,motor,,,,,,,
637,,465090,HierDyd89f9utl,ektu78e09a,ms1000200,motor,,70,img/motor_4.png,70,motor,4,122,1,0,0,,
null,,465199,HierDyd89f9utl,ektu78e09a,ms1000200,iti,,null,img/motor_4.png,70,motor,,,,,,,
476,,465682,HierDyd89f9utl,ektu78e09a,ms1000200,motor,,70,img/motor_4.png,70,motor,4,123,1,0,0,,
null,,465791,HierDyd89f9utl,ektu78e09a,ms1000200,iti,,null,img/motor_4.png,70,motor,,,,,,,
548,,466346,HierDyd89f9utl,ektu78e09a,ms1000200,motor,,72,img/motor_5.png,72,motor,5,124,1,0,0,,
null,,466455,HierDyd89f9utl,ektu78e09a,ms1000200,iti,,null,img/motor_5.png,72,motor,,,,,,,
867,,467330,HierDyd89f9utl,ektu78e09a,ms1000200,motor,,68,img/motor_3.png,68,motor,3,125,1,0,0,,
null,,467439,HierDyd89f9utl,ektu78e09a,ms1000200,iti,,null,img/motor_3.png,68,motor,,,,,,,
475,,467922,HierDyd89f9utl,ektu78e09a,ms1000200,motor,,76,img/motor_8.png,76,motor,8,126,1,0,0,,
null,,468037,HierDyd89f9utl,ektu78e09a,ms1000200,iti,,null,img/motor_8.png,76,motor,,,,,,,
574,,468618,HierDyd89f9utl,ektu78e09a,ms1000200,motor,,70,img/motor_4.png,70,motor,4,127,1,0,0,,
null,,468727,HierDyd89f9utl,ektu78e09a,ms1000200,iti,,null,img/motor_4.png,70,motor,,,,,,,
755,,469491,HierDyd89f9utl,ektu78e09a,ms1000200,motor,,72,img/motor_5.png,72,motor,5,128,1,0,0,,
null,,469605,HierDyd89f9utl,ektu78e09a,ms1000200,iti,,null,img/motor_5.png,72,motor,,,,,,,
533,,470146,HierDyd89f9utl,ektu78e09a,ms1000200,motor,,76,img/motor_8.png,76,motor,8,129,1,0,0,,
null,,470260,HierDyd89f9utl,ektu78e09a,ms1000200,iti,,null,img/motor_8.png,76,motor,,,,,,,
606,,470875,HierDyd89f9utl,ektu78e09a,ms1000200,motor,,68,img/motor_3.png,68,motor,3,130,1,0,0,,
null,,470983,HierDyd89f9utl,ektu78e09a,ms1000200,iti,,null,img/motor_3.png,68,motor,,,,,,,
460,,471451,HierDyd89f9utl,ektu78e09a,ms1000200,motor,,83,img/motor_2.png,83,motor,2,131,1,0,0,,
null,,471559,HierDyd89f9utl,ektu78e09a,ms1000200,iti,,null,img/motor_2.png,83,motor,,,,,,,
516,,472082,HierDyd89f9utl,ektu78e09a,ms1000200,motor,,70,img/motor_4.png,70,motor,4,132,1,0,0,,
null,,472191,HierDyd89f9utl,ektu78e09a,ms1000200,iti,,null,img/motor_4.png,70,motor,,,,,,,
484,,472689,HierDyd89f9utl,ektu78e09a,ms1000200,motor,,65,img/motor_1.png,65,motor,1,133,1,0,0,,
null,,472804,HierDyd89f9utl,ektu78e09a,ms1000200,iti,,null,img/motor_1.png,65,motor,,,,,,,
605,,473418,HierDyd89f9utl,ektu78e09a,ms1000200,motor,,83,img/motor_2.png,83,motor,2,134,1,0,0,,
null,,473527,HierDyd89f9utl,ektu78e09a,ms1000200,iti,,null,img/motor_2.png,83,motor,,,,,,,
460,,473995,HierDyd89f9utl,ektu78e09a,ms1000200,motor,,83,img/motor_2.png,83,motor,2,135,1,0,0,,
null,,474109,HierDyd89f9utl,ektu78e09a,ms1000200,iti,,null,img/motor_2.png,83,motor,,,,,,,
509,,474626,HierDyd89f9utl,ektu78e09a,ms1000200,motor,,65,img/motor_1.png,65,motor,1,136,1,0,0,,
null,,474734,HierDyd89f9utl,ektu78e09a,ms1000200,iti,,null,img/motor_1.png,65,motor,,,,,,,
454,,475201,HierDyd89f9utl,ektu78e09a,ms1000200,motor,,65,img/motor_1.png,65,motor,1,137,1,0,0,,
null,,475315,HierDyd89f9utl,ektu78e09a,ms1000200,iti,,null,img/motor_1.png,65,motor,,,,,,,
583,,475913,HierDyd89f9utl,ektu78e09a,ms1000200,motor,,68,img/motor_3.png,68,motor,3,138,1,0,0,,
null,,476028,HierDyd89f9utl,ektu78e09a,ms1000200,iti,,null,img/motor_3.png,68,motor,,,,,,,
446,,476489,HierDyd89f9utl,ektu78e09a,ms1000200,motor,,76,img/motor_8.png,76,motor,8,139,1,0,0,,
null,,476597,HierDyd89f9utl,ektu78e09a,ms1000200,iti,,null,img/motor_8.png,76,motor,,,,,,,
517,,477129,HierDyd89f9utl,ektu78e09a,ms1000200,motor,,75,img/motor_7.png,75,motor,7,140,1,0,0,,
null,,477244,HierDyd89f9utl,ektu78e09a,ms1000200,iti,,null,img/motor_7.png,75,motor,,,,,,,
741,,478001,HierDyd89f9utl,ektu78e09a,ms1000200,motor,,83,img/motor_2.png,83,motor,2,141,1,0,0,,
null,,478116,HierDyd89f9utl,ektu78e09a,ms1000200,iti,,null,img/motor_2.png,83,motor,,,,,,,
526,,478656,HierDyd89f9utl,ektu78e09a,ms1000200,motor,,65,img/motor_1.png,65,motor,1,142,1,0,0,,
null,,478765,HierDyd89f9utl,ektu78e09a,ms1000200,iti,,null,img/motor_1.png,65,motor,,,,,,,
532,,479307,HierDyd89f9utl,ektu78e09a,ms1000200,motor,,70,img/motor_4.png,70,motor,4,143,1,0,0,,
null,,479421,HierDyd89f9utl,ektu78e09a,ms1000200,iti,,null,img/motor_4.png,70,motor,,,,,,,
437,,479872,HierDyd89f9utl,ektu78e09a,ms1000200,motor,,72,img/motor_5.png,72,motor,5,144,1,0,0,,
null,,479988,HierDyd89f9utl,ektu78e09a,ms1000200,iti,,null,img/motor_5.png,72,motor,,,,,,,
381,,480385,HierDyd89f9utl,ektu78e09a,ms1000200,motor,,74,img/motor_6.png,74,motor,6,145,1,0,0,,
null,,480500,HierDyd89f9utl,ektu78e09a,ms1000200,iti,,null,img/motor_6.png,74,motor,,,,,,,
582,,481097,HierDyd89f9utl,ektu78e09a,ms1000200,motor,,83,img/motor_3.png,68,motor,3,146,0,1,0,,
233,,481344,HierDyd89f9utl,ektu78e09a,ms1000200,motorRepeat,,68,img/motor_3.png,68,motor,3,146,1,0,0,,
null,,481460,HierDyd89f9utl,ektu78e09a,ms1000200,iti,,null,img/motor_3.png,68,motor,,,,,,,
646,,482121,HierDyd89f9utl,ektu78e09a,ms1000200,motor,,72,img/motor_5.png,72,motor,5,147,1,0,0,,
null,,482235,HierDyd89f9utl,ektu78e09a,ms1000200,iti,,null,img/motor_5.png,72,motor,,,,,,,
670,,482921,HierDyd89f9utl,ektu78e09a,ms1000200,motor,,83,img/motor_2.png,83,motor,2,148,1,0,0,,
null,,483036,HierDyd89f9utl,ektu78e09a,ms1000200,iti,,null,img/motor_2.png,83,motor,,,,,,,
646,,483697,HierDyd89f9utl,ektu78e09a,ms1000200,motor,,75,img/motor_7.png,75,motor,7,149,1,0,0,,
null,,483812,HierDyd89f9utl,ektu78e09a,ms1000200,iti,,null,img/motor_7.png,75,motor,,,,,,,
669,,484490,HierDyd89f9utl,ektu78e09a,ms1000200,motor,,72,img/motor_5.png,72,motor,5,150,1,0,0,,
null,,484599,HierDyd89f9utl,ektu78e09a,ms1000200,iti,,null,img/motor_5.png,72,motor,,,,,,,
796,,485402,HierDyd89f9utl,ektu78e09a,ms1000200,motor,,70,img/motor_4.png,70,motor,4,151,1,0,0,,
null,,485510,HierDyd89f9utl,ektu78e09a,ms1000200,iti,,null,img/motor_4.png,70,motor,,,,,,,
955,,486475,HierDyd89f9utl,ektu78e09a,ms1000200,motor,,76,img/motor_8.png,76,motor,8,152,1,0,0,,
null,,486582,HierDyd89f9utl,ektu78e09a,ms1000200,iti,,null,img/motor_8.png,76,motor,,,,,,,
1179,,487770,HierDyd89f9utl,ektu78e09a,ms1000200,motor,,65,img/motor_1.png,65,motor,1,153,1,0,0,,
null,,487879,HierDyd89f9utl,ektu78e09a,ms1000200,iti,,null,img/motor_1.png,65,motor,,,,,,,
1003,,488890,HierDyd89f9utl,ektu78e09a,ms1000200,motor,,74,img/motor_6.png,74,motor,6,154,1,0,0,,
null,,489005,HierDyd89f9utl,ektu78e09a,ms1000200,iti,,null,img/motor_6.png,74,motor,,,,,,,
405,,489418,HierDyd89f9utl,ektu78e09a,ms1000200,motor,,76,img/motor_8.png,76,motor,8,155,1,0,0,,
null,,489527,HierDyd89f9utl,ektu78e09a,ms1000200,iti,,null,img/motor_8.png,76,motor,,,,,,,
508,,490042,HierDyd89f9utl,ektu78e09a,ms1000200,motor,,72,img/motor_5.png,72,motor,5,156,1,0,0,,
null,,490155,HierDyd89f9utl,ektu78e09a,ms1000200,iti,,null,img/motor_5.png,72,motor,,,,,,,
397,,490568,HierDyd89f9utl,ektu78e09a,ms1000200,motor,,72,img/motor_5.png,72,motor,5,157,1,0,0,,
null,,490678,HierDyd89f9utl,ektu78e09a,ms1000200,iti,,null,img/motor_5.png,72,motor,,,,,,,
501,,491192,HierDyd89f9utl,ektu78e09a,ms1000200,motor,,70,img/motor_4.png,70,motor,4,158,1,0,0,,
null,,491301,HierDyd89f9utl,ektu78e09a,ms1000200,iti,,null,img/motor_4.png,70,motor,,,,,,,
541,,491850,HierDyd89f9utl,ektu78e09a,ms1000200,motor,,74,img/motor_6.png,74,motor,6,159,1,0,0,,
null,,491966,HierDyd89f9utl,ektu78e09a,ms1000200,iti,,null,img/motor_6.png,74,motor,,,,,,,
405,,492379,HierDyd89f9utl,ektu78e09a,ms1000200,motor,,75,img/motor_7.png,75,motor,7,160,1,0,0,,
null,,492493,HierDyd89f9utl,ektu78e09a,ms1000200,iti,,null,img/motor_7.png,75,motor,,,,,,,
477,,492977,HierDyd89f9utl,ektu78e09a,ms1000200,motor,,65,img/motor_1.png,65,motor,1,161,1,0,0,,
null,,493086,HierDyd89f9utl,ektu78e09a,ms1000200,iti,,null,img/motor_1.png,65,motor,,,,,,,
573,,493667,HierDyd89f9utl,ektu78e09a,ms1000200,motor,,74,img/motor_7.png,75,motor,7,162,0,1,0,,
320,,494001,HierDyd89f9utl,ektu78e09a,ms1000200,motorRepeat,,75,img/motor_7.png,75,motor,7,162,1,0,0,,
null,,494116,HierDyd89f9utl,ektu78e09a,ms1000200,iti,,null,img/motor_7.png,75,motor,,,,,,,
494,,494624,HierDyd89f9utl,ektu78e09a,ms1000200,motor,,76,img/motor_8.png,76,motor,8,163,1,0,0,,
null,,494740,HierDyd89f9utl,ektu78e09a,ms1000200,iti,,null,img/motor_8.png,76,motor,,,,,,,
1071,,495825,HierDyd89f9utl,ektu78e09a,ms1000200,motor,,68,img/motor_3.png,68,motor,3,164,1,0,0,,
null,,495940,HierDyd89f9utl,ektu78e09a,ms1000200,iti,,null,img/motor_3.png,68,motor,,,,,,,
998,,496953,HierDyd89f9utl,ektu78e09a,ms1000200,motor,,75,img/motor_7.png,75,motor,7,165,1,0,0,,
null,,497067,HierDyd89f9utl,ektu78e09a,ms1000200,iti,,null,img/motor_7.png,75,motor,,,,,,,
653,,497731,HierDyd89f9utl,ektu78e09a,ms1000200,motor,,83,img/motor_2.png,83,motor,2,166,1,0,0,,
null,,497839,HierDyd89f9utl,ektu78e09a,ms1000200,iti,,null,img/motor_2.png,83,motor,,,,,,,
1219,,499066,HierDyd89f9utl,ektu78e09a,ms1000200,motor,,74,img/motor_6.png,74,motor,6,167,1,0,0,,
null,,499174,HierDyd89f9utl,ektu78e09a,ms1000200,iti,,null,img/motor_6.png,74,motor,,,,,,,
685,,499866,HierDyd89f9utl,ektu78e09a,ms1000200,motor,,68,img/motor_3.png,68,motor,3,168,1,0,0,,
null,,499974,HierDyd89f9utl,ektu78e09a,ms1000200,iti,,null,img/motor_3.png,68,motor,,,,,,,
564,,500546,HierDyd89f9utl,ektu78e09a,ms1000200,motor,,74,img/motor_5.png,72,motor,5,169,0,1,0,,
289,,500842,HierDyd89f9utl,ektu78e09a,ms1000200,motorRepeat,,72,img/motor_5.png,72,motor,5,169,1,0,0,,
null,,500957,HierDyd89f9utl,ektu78e09a,ms1000200,iti,,null,img/motor_5.png,72,motor,,,,,,,
677,,501642,HierDyd89f9utl,ektu78e09a,ms1000200,motor,,74,img/motor_6.png,74,motor,6,170,1,0,0,,
null,,501751,HierDyd89f9utl,ektu78e09a,ms1000200,iti,,null,img/motor_6.png,74,motor,,,,,,,
821,,502585,HierDyd89f9utl,ektu78e09a,ms1000200,motor,,83,img/motor_2.png,83,motor,2,171,1,0,0,,
null,,502694,HierDyd89f9utl,ektu78e09a,ms1000200,iti,,null,img/motor_2.png,83,motor,,,,,,,
494,,503194,HierDyd89f9utl,ektu78e09a,ms1000200,motor,,76,img/motor_8.png,76,motor,8,172,1,0,0,,
null,,503303,HierDyd89f9utl,ektu78e09a,ms1000200,iti,,null,img/motor_8.png,76,motor,,,,,,,
699,,504016,HierDyd89f9utl,ektu78e09a,ms1000200,motor,,83,img/motor_2.png,83,motor,2,173,1,0,0,,
null,,504126,HierDyd89f9utl,ektu78e09a,ms1000200,iti,,null,img/motor_2.png,83,motor,,,,,,,
572,,504713,HierDyd89f9utl,ektu78e09a,ms1000200,motor,,70,img/motor_4.png,70,motor,4,174,1,0,0,,
null,,504829,HierDyd89f9utl,ektu78e09a,ms1000200,iti,,null,img/motor_4.png,70,motor,,,,,,,
453,,505291,HierDyd89f9utl,ektu78e09a,ms1000200,motor,,76,img/motor_8.png,76,motor,8,175,1,0,0,,
null,,505399,HierDyd89f9utl,ektu78e09a,ms1000200,iti,,null,img/motor_8.png,76,motor,,,,,,,
476,,505882,HierDyd89f9utl,ektu78e09a,ms1000200,motor,,65,img/motor_1.png,65,motor,1,176,1,0,0,,
null,,505997,HierDyd89f9utl,ektu78e09a,ms1000200,iti,,null,img/motor_1.png,65,motor,,,,,,,
588,,506595,HierDyd89f9utl,ektu78e09a,ms1000200,motor,,74,img/motor_6.png,74,motor,6,177,1,0,0,,
null,,506709,HierDyd89f9utl,ektu78e09a,ms1000200,iti,,null,img/motor_6.png,74,motor,,,,,,,
629,,507346,HierDyd89f9utl,ektu78e09a,ms1000200,motor,,68,img/motor_3.png,68,motor,3,178,1,0,0,,
null,,507461,HierDyd89f9utl,ektu78e09a,ms1000200,iti,,null,img/motor_3.png,68,motor,,,,,,,
477,,507947,HierDyd89f9utl,ektu78e09a,ms1000200,motor,,65,img/motor_1.png,65,motor,1,179,1,0,0,,
null,,508062,HierDyd89f9utl,ektu78e09a,ms1000200,iti,,null,img/motor_1.png,65,motor,,,,,,,
660,,508731,HierDyd89f9utl,ektu78e09a,ms1000200,motor,,83,img/motor_3.png,68,motor,3,180,0,1,0,,
327,,509066,HierDyd89f9utl,ektu78e09a,ms1000200,motorRepeat,,68,img/motor_3.png,68,motor,3,180,1,0,0,,
null,,509175,HierDyd89f9utl,ektu78e09a,ms1000200,iti,,null,img/motor_3.png,68,motor,,,,,,,
563,,509745,HierDyd89f9utl,ektu78e09a,ms1000200,motor,,65,img/motor_1.png,65,motor,1,181,1,0,0,,
null,,509860,HierDyd89f9utl,ektu78e09a,ms1000200,iti,,null,img/motor_1.png,65,motor,,,,,,,
574,,510442,HierDyd89f9utl,ektu78e09a,ms1000200,motor,,76,img/motor_8.png,76,motor,8,182,1,0,0,,
null,,510551,HierDyd89f9utl,ektu78e09a,ms1000200,iti,,null,img/motor_8.png,76,motor,,,,,,,
772,,511331,HierDyd89f9utl,ektu78e09a,ms1000200,motor,,72,img/motor_5.png,72,motor,5,183,1,0,0,,
null,,511439,HierDyd89f9utl,ektu78e09a,ms1000200,iti,,null,img/motor_5.png,72,motor,,,,,,,
588,,512040,HierDyd89f9utl,ektu78e09a,ms1000200,motor,,74,img/motor_6.png,74,motor,6,184,1,0,0,,
null,,512150,HierDyd89f9utl,ektu78e09a,ms1000200,iti,,null,img/motor_6.png,74,motor,,,,,,,
531,,512690,HierDyd89f9utl,ektu78e09a,ms1000200,motor,,70,img/motor_4.png,70,motor,4,185,1,0,0,,
null,,512798,HierDyd89f9utl,ektu78e09a,ms1000200,iti,,null,img/motor_4.png,70,motor,,,,,,,
636,,513450,HierDyd89f9utl,ektu78e09a,ms1000200,motor,,68,img/motor_3.png,68,motor,3,186,1,0,0,,
null,,513565,HierDyd89f9utl,ektu78e09a,ms1000200,iti,,null,img/motor_3.png,68,motor,,,,,,,
494,,514073,HierDyd89f9utl,ektu78e09a,ms1000200,motor,,65,img/motor_1.png,65,motor,1,187,1,0,0,,
null,,514189,HierDyd89f9utl,ektu78e09a,ms1000200,iti,,null,img/motor_1.png,65,motor,,,,,,,
702,,514898,HierDyd89f9utl,ektu78e09a,ms1000200,motor,,68,img/motor_3.png,68,motor,3,188,1,0,0,,
null,,515012,HierDyd89f9utl,ektu78e09a,ms1000200,iti,,null,img/motor_3.png,68,motor,,,,,,,
438,,515458,HierDyd89f9utl,ektu78e09a,ms1000200,motor,,76,img/motor_8.png,76,motor,8,189,1,0,0,,
null,,515567,HierDyd89f9utl,ektu78e09a,ms1000200,iti,,null,img/motor_8.png,76,motor,,,,,,,
692,,516266,HierDyd89f9utl,ektu78e09a,ms1000200,motor,,74,img/motor_6.png,74,motor,6,190,1,0,0,,
null,,516374,HierDyd89f9utl,ektu78e09a,ms1000200,iti,,null,img/motor_6.png,74,motor,,,,,,,
468,,516856,HierDyd89f9utl,ektu78e09a,ms1000200,motor,,76,img/motor_8.png,76,motor,8,191,1,0,0,,
null,,516972,HierDyd89f9utl,ektu78e09a,ms1000200,iti,,null,img/motor_8.png,76,motor,,,,,,,
558,,517540,HierDyd89f9utl,ektu78e09a,ms1000200,motor,,65,img/motor_1.png,65,motor,1,192,1,0,0,,
null,,517653,HierDyd89f9utl,ektu78e09a,ms1000200,iti,,null,img/motor_1.png,65,motor,,,,,,,
780,,518446,HierDyd89f9utl,ektu78e09a,ms1000200,motor,,72,img/motor_5.png,72,motor,5,193,1,0,0,,
null,,518561,HierDyd89f9utl,ektu78e09a,ms1000200,iti,,null,img/motor_5.png,72,motor,,,,,,,
639,,519213,HierDyd89f9utl,ektu78e09a,ms1000200,motor,,75,img/motor_7.png,75,motor,7,194,1,0,0,,
null,,519321,HierDyd89f9utl,ektu78e09a,ms1000200,iti,,null,img/motor_7.png,75,motor,,,,,,,
497,,519827,HierDyd89f9utl,ektu78e09a,ms1000200,motor,,76,img/motor_8.png,76,motor,8,195,1,0,0,,
null,,519935,HierDyd89f9utl,ektu78e09a,ms1000200,iti,,null,img/motor_8.png,76,motor,,,,,,,
554,,520505,HierDyd89f9utl,ektu78e09a,ms1000200,motor,,74,img/motor_7.png,75,motor,7,196,0,1,0,,
64,,520578,HierDyd89f9utl,ektu78e09a,ms1000200,motorRepeat,,75,img/motor_7.png,75,motor,7,196,1,0,0,,
null,,520693,HierDyd89f9utl,ektu78e09a,ms1000200,iti,,null,img/motor_7.png,75,motor,,,,,,,
636,,521338,HierDyd89f9utl,ektu78e09a,ms1000200,motor,,65,img/motor_1.png,65,motor,1,197,1,0,0,,
null,,521447,HierDyd89f9utl,ektu78e09a,ms1000200,iti,,null,img/motor_1.png,65,motor,,,,,,,
683,,522139,HierDyd89f9utl,ektu78e09a,ms1000200,motor,,75,img/motor_7.png,75,motor,7,198,1,0,0,,
null,,522247,HierDyd89f9utl,ektu78e09a,ms1000200,iti,,null,img/motor_7.png,75,motor,,,,,,,
404,,522659,HierDyd89f9utl,ektu78e09a,ms1000200,motor,,75,img/motor_7.png,75,motor,7,199,1,0,0,,
null,,522774,HierDyd89f9utl,ektu78e09a,ms1000200,iti,,null,img/motor_7.png,75,motor,,,,,,,
851,,523635,HierDyd89f9utl,ektu78e09a,ms1000200,motor,,68,img/motor_3.png,68,motor,3,200,1,0,0,,
null,,523743,HierDyd89f9utl,ektu78e09a,ms1000200,iti,,null,img/motor_3.png,68,motor,,,,,,,
460,,524211,HierDyd89f9utl,ektu78e09a,ms1000200,motor,,65,img/motor_1.png,65,motor,1,201,1,0,0,,
null,,524326,HierDyd89f9utl,ektu78e09a,ms1000200,iti,,null,img/motor_1.png,65,motor,,,,,,,
732,,525073,HierDyd89f9utl,ektu78e09a,ms1000200,motor,,70,img/motor_4.png,70,motor,4,202,1,0,0,,
null,,525182,HierDyd89f9utl,ektu78e09a,ms1000200,iti,,null,img/motor_4.png,70,motor,,,,,,,
581,,525778,HierDyd89f9utl,ektu78e09a,ms1000200,motor,,74,img/motor_6.png,74,motor,6,203,1,0,0,,
null,,525892,HierDyd89f9utl,ektu78e09a,ms1000200,iti,,null,img/motor_6.png,74,motor,,,,,,,
613,,526514,HierDyd89f9utl,ektu78e09a,ms1000200,motor,,70,img/motor_4.png,70,motor,4,204,1,0,0,,
null,,526623,HierDyd89f9utl,ektu78e09a,ms1000200,iti,,null,img/motor_4.png,70,motor,,,,,,,
524,,527155,HierDyd89f9utl,ektu78e09a,ms1000200,motor,,65,img/motor_1.png,65,motor,1,205,1,0,0,,
null,,527263,HierDyd89f9utl,ektu78e09a,ms1000200,iti,,null,img/motor_1.png,65,motor,,,,,,,
580,,527857,HierDyd89f9utl,ektu78e09a,ms1000200,motor,,75,img/motor_7.png,75,motor,7,206,1,0,0,,
null,,527972,HierDyd89f9utl,ektu78e09a,ms1000200,iti,,null,img/motor_7.png,75,motor,,,,,,,
494,,528481,HierDyd89f9utl,ektu78e09a,ms1000200,motor,,72,img/motor_5.png,72,motor,5,207,1,0,0,,
null,,528597,HierDyd89f9utl,ektu78e09a,ms1000200,iti,,null,img/motor_5.png,72,motor,,,,,,,
526,,529131,HierDyd89f9utl,ektu78e09a,ms1000200,motor,,75,img/motor_7.png,75,motor,7,208,1,0,0,,
null,,529239,HierDyd89f9utl,ektu78e09a,ms1000200,iti,,null,img/motor_7.png,75,motor,,,,,,,
643,,529891,HierDyd89f9utl,ektu78e09a,ms1000200,motor,,76,img/motor_8.png,76,motor,8,209,1,0,0,,
null,,529999,HierDyd89f9utl,ektu78e09a,ms1000200,iti,,null,img/motor_8.png,76,motor,,,,,,,
443,,530450,HierDyd89f9utl,ektu78e09a,ms1000200,motor,,76,img/motor_7.png,75,motor,7,210,0,1,0,,
224,,530683,HierDyd89f9utl,ektu78e09a,ms1000200,motorRepeat,,75,img/motor_7.png,75,motor,7,210,1,0,0,,
null,,530798,HierDyd89f9utl,ektu78e09a,ms1000200,iti,,null,img/motor_7.png,75,motor,,,,,,,
1253,,532066,HierDyd89f9utl,ektu78e09a,ms1000200,motor,,72,img/motor_5.png,72,motor,5,211,1,0,0,,
null,,532175,HierDyd89f9utl,ektu78e09a,ms1000200,iti,,null,img/motor_5.png,72,motor,,,,,,,
539,,532729,HierDyd89f9utl,ektu78e09a,ms1000200,motor,,70,img/motor_4.png,70,motor,4,212,1,0,0,,
null,,532844,HierDyd89f9utl,ektu78e09a,ms1000200,iti,,null,img/motor_4.png,70,motor,,,,,,,
765,,533618,HierDyd89f9utl,ektu78e09a,ms1000200,motor,,74,img/motor_6.png,74,motor,6,213,1,0,0,,
null,,533726,HierDyd89f9utl,ektu78e09a,ms1000200,iti,,null,img/motor_6.png,74,motor,,,,,,,
660,,534395,HierDyd89f9utl,ektu78e09a,ms1000200,motor,,72,img/motor_5.png,72,motor,5,214,1,0,0,,
null,,534510,HierDyd89f9utl,ektu78e09a,ms1000200,iti,,null,img/motor_5.png,72,motor,,,,,,,
636,,535154,HierDyd89f9utl,ektu78e09a,ms1000200,motor,,76,img/motor_8.png,76,motor,8,215,1,0,0,,
null,,535263,HierDyd89f9utl,ektu78e09a,ms1000200,iti,,null,img/motor_8.png,76,motor,,,,,,,
803,,536074,HierDyd89f9utl,ektu78e09a,ms1000200,motor,,72,img/motor_5.png,72,motor,5,216,1,0,0,,
null,,536188,HierDyd89f9utl,ektu78e09a,ms1000200,iti,,null,img/motor_5.png,72,motor,,,,,,,
630,,536826,HierDyd89f9utl,ektu78e09a,ms1000200,motor,,70,img/motor_4.png,70,motor,4,217,1,0,0,,
null,,536941,HierDyd89f9utl,ektu78e09a,ms1000200,iti,,null,img/motor_4.png,70,motor,,,,,,,
501,,537452,HierDyd89f9utl,ektu78e09a,ms1000200,motor,,65,img/motor_1.png,65,motor,1,218,1,0,0,,
null,,537566,HierDyd89f9utl,ektu78e09a,ms1000200,iti,,null,img/motor_1.png,65,motor,,,,,,,
565,,538139,HierDyd89f9utl,ektu78e09a,ms1000200,motor,,76,img/motor_8.png,76,motor,8,219,1,0,0,,
null,,538248,HierDyd89f9utl,ektu78e09a,ms1000200,iti,,null,img/motor_8.png,76,motor,,,,,,,
580,,538835,HierDyd89f9utl,ektu78e09a,ms1000200,motor,,65,img/motor_1.png,65,motor,1,220,1,0,0,,
null,,538943,HierDyd89f9utl,ektu78e09a,ms1000200,iti,,null,img/motor_1.png,65,motor,,,,,,,
611,,539563,HierDyd89f9utl,ektu78e09a,ms1000200,motor,,83,img/motor_2.png,83,motor,2,221,1,0,0,,
null,,539672,HierDyd89f9utl,ektu78e09a,ms1000200,iti,,null,img/motor_2.png,83,motor,,,,,,,
466,,540153,HierDyd89f9utl,ektu78e09a,ms1000200,motor,,83,img/motor_2.png,83,motor,2,222,1,0,0,,
null,,540263,HierDyd89f9utl,ektu78e09a,ms1000200,iti,,null,img/motor_2.png,83,motor,,,,,,,
796,,541067,HierDyd89f9utl,ektu78e09a,ms1000200,motor,,74,img/motor_6.png,74,motor,6,223,1,0,0,,
null,,541175,HierDyd89f9utl,ektu78e09a,ms1000200,iti,,null,img/motor_6.png,74,motor,,,,,,,
669,,541851,HierDyd89f9utl,ektu78e09a,ms1000200,motor,,68,img/motor_3.png,68,motor,3,224,1,0,0,,
null,,541959,HierDyd89f9utl,ektu78e09a,ms1000200,iti,,null,img/motor_3.png,68,motor,,,,,,,
445,,542417,HierDyd89f9utl,ektu78e09a,ms1000200,motor,,76,img/motor_8.png,76,motor,8,225,1,0,0,,
null,,542526,HierDyd89f9utl,ektu78e09a,ms1000200,iti,,null,img/motor_8.png,76,motor,,,,,,,
612,,543147,HierDyd89f9utl,ektu78e09a,ms1000200,motor,,74,img/motor_6.png,74,motor,6,226,1,0,0,,
null,,543255,HierDyd89f9utl,ektu78e09a,ms1000200,iti,,null,img/motor_6.png,74,motor,,,,,,,
971,,544235,HierDyd89f9utl,ektu78e09a,ms1000200,motor,,83,img/motor_2.png,83,motor,2,227,1,0,0,,
null,,544350,HierDyd89f9utl,ektu78e09a,ms1000200,iti,,null,img/motor_2.png,83,motor,,,,,,,
492,,544851,HierDyd89f9utl,ektu78e09a,ms1000200,motor,,68,img/motor_3.png,68,motor,3,228,1,0,0,,
null,,544959,HierDyd89f9utl,ektu78e09a,ms1000200,iti,,null,img/motor_3.png,68,motor,,,,,,,
573,,545539,HierDyd89f9utl,ektu78e09a,ms1000200,motor,,72,img/motor_5.png,72,motor,5,229,1,0,0,,
null,,545654,HierDyd89f9utl,ektu78e09a,ms1000200,iti,,null,img/motor_5.png,72,motor,,,,,,,
605,,546267,HierDyd89f9utl,ektu78e09a,ms1000200,motor,,70,img/motor_4.png,70,motor,4,230,1,0,0,,
null,,546376,HierDyd89f9utl,ektu78e09a,ms1000200,iti,,null,img/motor_4.png,70,motor,,,,,,,
563,,546947,HierDyd89f9utl,ektu78e09a,ms1000200,motor,,74,img/motor_6.png,74,motor,6,231,1,0,0,,
null,,547055,HierDyd89f9utl,ektu78e09a,ms1000200,iti,,null,img/motor_6.png,74,motor,,,,,,,
635,,547698,HierDyd89f9utl,ektu78e09a,ms1000200,motor,,83,img/motor_2.png,83,motor,2,232,1,0,0,,
null,,547807,HierDyd89f9utl,ektu78e09a,ms1000200,iti,,null,img/motor_2.png,83,motor,,,,,,,
628,,548443,HierDyd89f9utl,ektu78e09a,ms1000200,motor,,72,img/motor_5.png,72,motor,5,233,1,0,0,,
null,,548551,HierDyd89f9utl,ektu78e09a,ms1000200,iti,,null,img/motor_5.png,72,motor,,,,,,,
643,,549203,HierDyd89f9utl,ektu78e09a,ms1000200,motor,,68,img/motor_3.png,68,motor,3,234,1,0,0,,
null,,549311,HierDyd89f9utl,ektu78e09a,ms1000200,iti,,null,img/motor_3.png,68,motor,,,,,,,
516,,549842,HierDyd89f9utl,ektu78e09a,ms1000200,motor,,75,img/motor_7.png,75,motor,7,235,1,0,0,,
null,,549951,HierDyd89f9utl,ektu78e09a,ms1000200,iti,,null,img/motor_7.png,75,motor,,,,,,,
580,,550546,HierDyd89f9utl,ektu78e09a,ms1000200,motor,,74,img/motor_6.png,74,motor,6,236,1,0,0,,
null,,550654,HierDyd89f9utl,ektu78e09a,ms1000200,iti,,null,img/motor_6.png,74,motor,,,,,,,
429,,551091,HierDyd89f9utl,ektu78e09a,ms1000200,motor,,76,img/motor_8.png,76,motor,8,237,1,0,0,,
null,,551199,HierDyd89f9utl,ektu78e09a,ms1000200,iti,,null,img/motor_8.png,76,motor,,,,,,,
539,,551754,HierDyd89f9utl,ektu78e09a,ms1000200,motor,,74,img/motor_6.png,74,motor,6,238,1,0,0,,
null,,551863,HierDyd89f9utl,ektu78e09a,ms1000200,iti,,null,img/motor_6.png,74,motor,,,,,,,
1076,,552954,HierDyd89f9utl,ektu78e09a,ms1000200,motor,,83,img/motor_2.png,83,motor,2,239,1,0,0,,
null,,553063,HierDyd89f9utl,ektu78e09a,ms1000200,iti,,null,img/motor_2.png,83,motor,,,,,,,
676,,553747,HierDyd89f9utl,ektu78e09a,ms1000200,motor,,74,img/motor_6.png,74,motor,6,240,1,0,0,,
null,,553862,HierDyd89f9utl,ektu78e09a,ms1000200,iti,,null,img/motor_6.png,74,motor,,,,,,,
587,,554459,HierDyd89f9utl,ektu78e09a,ms1000200,motor,,65,img/motor_1.png,65,motor,1,241,1,0,0,,
null,,554567,HierDyd89f9utl,ektu78e09a,ms1000200,iti,,null,img/motor_1.png,65,motor,,,,,,,
603,,555178,HierDyd89f9utl,ektu78e09a,ms1000200,motor,,74,img/motor_6.png,74,motor,6,242,1,0,0,,
null,,555287,HierDyd89f9utl,ektu78e09a,ms1000200,iti,,null,img/motor_6.png,74,motor,,,,,,,
627,,555929,HierDyd89f9utl,ektu78e09a,ms1000200,motor,,65,img/motor_1.png,65,motor,1,243,1,0,0,,
null,,556038,HierDyd89f9utl,ektu78e09a,ms1000200,iti,,null,img/motor_1.png,65,motor,,,,,,,
501,,556548,HierDyd89f9utl,ektu78e09a,ms1000200,motor,,75,img/motor_7.png,75,motor,7,244,1,0,0,,
null,,556663,HierDyd89f9utl,ektu78e09a,ms1000200,iti,,null,img/motor_7.png,75,motor,,,,,,,
651,,557323,HierDyd89f9utl,ektu78e09a,ms1000200,motor,,68,img/motor_3.png,68,motor,3,245,1,0,0,,
null,,557432,HierDyd89f9utl,ektu78e09a,ms1000200,iti,,null,img/motor_3.png,68,motor,,,,,,,
659,,558099,HierDyd89f9utl,ektu78e09a,ms1000200,motor,,68,img/motor_3.png,68,motor,3,246,1,0,0,,
null,,558213,HierDyd89f9utl,ektu78e09a,ms1000200,iti,,null,img/motor_3.png,68,motor,,,,,,,
524,,558746,HierDyd89f9utl,ektu78e09a,ms1000200,motor,,75,img/motor_7.png,75,motor,7,247,1,0,0,,
null,,558862,HierDyd89f9utl,ektu78e09a,ms1000200,iti,,null,img/motor_7.png,75,motor,,,,,,,
556,,559433,HierDyd89f9utl,ektu78e09a,ms1000200,motor,,68,img/motor_3.png,68,motor,3,248,1,0,0,,
null,,559543,HierDyd89f9utl,ektu78e09a,ms1000200,iti,,null,img/motor_3.png,68,motor,,,,,,,
420,,559970,HierDyd89f9utl,ektu78e09a,ms1000200,motor,,68,img/motor_3.png,68,motor,3,249,1,0,0,,
null,,560084,HierDyd89f9utl,ektu78e09a,ms1000200,iti,,null,img/motor_3.png,68,motor,,,,,,,
543,,560635,HierDyd89f9utl,ektu78e09a,ms1000200,motor,,70,img/motor_4.png,70,motor,4,250,1,0,0,,
null,,560743,HierDyd89f9utl,ektu78e09a,ms1000200,iti,,null,img/motor_4.png,70,motor,,,,,,,
460,,561212,HierDyd89f9utl,ektu78e09a,ms1000200,motor,,76,img/motor_8.png,76,motor,8,251,1,0,0,,
null,,561320,HierDyd89f9utl,ektu78e09a,ms1000200,iti,,null,img/motor_8.png,76,motor,,,,,,,
571,,561900,HierDyd89f9utl,ektu78e09a,ms1000200,motor,,75,img/motor_7.png,75,motor,7,252,1,0,0,,
null,,562008,HierDyd89f9utl,ektu78e09a,ms1000200,iti,,null,img/motor_7.png,75,motor,,,,,,,
540,,562555,HierDyd89f9utl,ektu78e09a,ms1000200,motor,,65,img/motor_1.png,65,motor,1,253,1,0,0,,
null,,562664,HierDyd89f9utl,ektu78e09a,ms1000200,iti,,null,img/motor_1.png,65,motor,,,,,,,
468,,563138,HierDyd89f9utl,ektu78e09a,ms1000200,motor,,72,img/motor_5.png,72,motor,5,254,1,0,0,,
null,,563247,HierDyd89f9utl,ektu78e09a,ms1000200,iti,,null,img/motor_5.png,72,motor,,,,,,,
596,,563851,HierDyd89f9utl,ektu78e09a,ms1000200,motor,,83,img/motor_2.png,83,motor,2,255,1,0,0,,
null,,563959,HierDyd89f9utl,ektu78e09a,ms1000200,iti,,null,img/motor_2.png,83,motor,,,,,,,
595,,564563,HierDyd89f9utl,ektu78e09a,ms1000200,motor,,75,img/motor_7.png,75,motor,7,256,1,0,0,,
null,,564672,HierDyd89f9utl,ektu78e09a,ms1000200,iti,,null,img/motor_7.png,75,motor,,,,,,,
547,,565228,HierDyd89f9utl,ektu78e09a,ms1000200,motor,,65,img/motor_1.png,65,motor,1,257,1,0,0,,
null,,565342,HierDyd89f9utl,ektu78e09a,ms1000200,iti,,null,img/motor_1.png,65,motor,,,,,,,
748,,566100,HierDyd89f9utl,ektu78e09a,ms1000200,motor,,70,img/motor_4.png,70,motor,4,258,1,0,0,,
null,,566208,HierDyd89f9utl,ektu78e09a,ms1000200,iti,,null,img/motor_4.png,70,motor,,,,,,,
523,,566739,HierDyd89f9utl,ektu78e09a,ms1000200,motor,,75,img/motor_7.png,75,motor,7,259,1,0,0,,
null,,566847,HierDyd89f9utl,ektu78e09a,ms1000200,iti,,null,img/motor_7.png,75,motor,,,,,,,
908,,567763,HierDyd89f9utl,ektu78e09a,ms1000200,motor,,68,img/motor_3.png,68,motor,3,260,1,0,0,,
null,,567871,HierDyd89f9utl,ektu78e09a,ms1000200,iti,,null,img/motor_3.png,68,motor,,,,,,,
707,,568587,HierDyd89f9utl,ektu78e09a,ms1000200,motor,,74,img/motor_6.png,74,motor,6,261,1,0,0,,
null,,568702,HierDyd89f9utl,ektu78e09a,ms1000200,iti,,null,img/motor_6.png,74,motor,,,,,,,
604,,569315,HierDyd89f9utl,ektu78e09a,ms1000200,motor,,68,img/motor_4.png,70,motor,4,262,0,1,0,,
321,,569644,HierDyd89f9utl,ektu78e09a,ms1000200,motorRepeat,,70,img/motor_4.png,70,motor,4,262,1,0,0,,
null,,569751,HierDyd89f9utl,ektu78e09a,ms1000200,iti,,null,img/motor_4.png,70,motor,,,,,,,
739,,570499,HierDyd89f9utl,ektu78e09a,ms1000200,motor,,74,img/motor_6.png,74,motor,6,263,1,0,0,,
null,,570608,HierDyd89f9utl,ektu78e09a,ms1000200,iti,,null,img/motor_6.png,74,motor,,,,,,,
723,,571339,HierDyd89f9utl,ektu78e09a,ms1000200,motor,,70,img/motor_4.png,70,motor,4,264,1,0,0,,
null,,571453,HierDyd89f9utl,ektu78e09a,ms1000200,iti,,null,img/motor_4.png,70,motor,,,,,,,
630,,572091,HierDyd89f9utl,ektu78e09a,ms1000200,motor,,68,img/motor_3.png,68,motor,3,265,1,0,0,,
null,,572199,HierDyd89f9utl,ektu78e09a,ms1000200,iti,,null,img/motor_3.png,68,motor,,,,,,,
595,,572803,HierDyd89f9utl,ektu78e09a,ms1000200,motor,,70,img/motor_4.png,70,motor,4,266,1,0,0,,
null,,572918,HierDyd89f9utl,ektu78e09a,ms1000200,iti,,null,img/motor_4.png,70,motor,,,,,,,
516,,573449,HierDyd89f9utl,ektu78e09a,ms1000200,motor,,65,img/motor_1.png,65,motor,1,267,1,0,0,,
null,,573559,HierDyd89f9utl,ektu78e09a,ms1000200,iti,,null,img/motor_1.png,65,motor,,,,,,,
684,,574251,HierDyd89f9utl,ektu78e09a,ms1000200,motor,,72,img/motor_5.png,72,motor,5,268,1,0,0,,
null,,574360,HierDyd89f9utl,ektu78e09a,ms1000200,iti,,null,img/motor_5.png,72,motor,,,,,,,
548,,574915,HierDyd89f9utl,ektu78e09a,ms1000200,motor,,74,img/motor_6.png,74,motor,6,269,1,0,0,,
null,,575024,HierDyd89f9utl,ektu78e09a,ms1000200,iti,,null,img/motor_6.png,74,motor,,,,,,,
412,,575443,HierDyd89f9utl,ektu78e09a,ms1000200,motor,,75,img/motor_7.png,75,motor,7,270,1,0,0,,
null,,575551,HierDyd89f9utl,ektu78e09a,ms1000200,iti,,null,img/motor_7.png,75,motor,,,,,,,
324,,575889,HierDyd89f9utl,ektu78e09a,ms1000200,motor,,76,img/motor_8.png,76,motor,8,271,1,0,0,,
null,,575999,HierDyd89f9utl,ektu78e09a,ms1000200,iti,,null,img/motor_8.png,76,motor,,,,,,,
453,,576466,HierDyd89f9utl,ektu78e09a,ms1000200,motor,,70,img/motor_4.png,70,motor,4,272,1,0,0,,
null,,576582,HierDyd89f9utl,ektu78e09a,ms1000200,iti,,null,img/motor_4.png,70,motor,,,,,,,
405,,576995,HierDyd89f9utl,ektu78e09a,ms1000200,motor,,70,img/motor_4.png,70,motor,4,273,1,0,0,,
null,,577111,HierDyd89f9utl,ektu78e09a,ms1000200,iti,,null,img/motor_4.png,70,motor,,,,,,,
484,,577609,HierDyd89f9utl,ektu78e09a,ms1000200,motor,,65,img/motor_1.png,65,motor,1,274,1,0,0,,
null,,577719,HierDyd89f9utl,ektu78e09a,ms1000200,iti,,null,img/motor_1.png,65,motor,,,,,,,
548,,578275,HierDyd89f9utl,ektu78e09a,ms1000200,motor,,68,img/motor_3.png,68,motor,3,275,1,0,0,,
null,,578383,HierDyd89f9utl,ektu78e09a,ms1000200,iti,,null,img/motor_3.png,68,motor,,,,,,,
571,,578963,HierDyd89f9utl,ektu78e09a,ms1000200,motor,,74,img/motor_7.png,75,motor,7,276,0,1,0,,
272,,579243,HierDyd89f9utl,ektu78e09a,ms1000200,motorRepeat,,75,img/motor_7.png,75,motor,7,276,1,0,0,,
null,,579351,HierDyd89f9utl,ektu78e09a,ms1000200,iti,,null,img/motor_7.png,75,motor,,,,,,,
676,,580034,HierDyd89f9utl,ektu78e09a,ms1000200,motor,,72,img/motor_5.png,72,motor,5,277,1,0,0,,
null,,580143,HierDyd89f9utl,ektu78e09a,ms1000200,iti,,null,img/motor_5.png,72,motor,,,,,,,
956,,581107,HierDyd89f9utl,ektu78e09a,ms1000200,motor,,68,img/motor_3.png,68,motor,3,278,1,0,0,,
null,,581215,HierDyd89f9utl,ektu78e09a,ms1000200,iti,,null,img/motor_3.png,68,motor,,,,,,,
619,,581843,HierDyd89f9utl,ektu78e09a,ms1000200,motor,,74,img/motor_6.png,74,motor,6,279,1,0,0,,
null,,581951,HierDyd89f9utl,ektu78e09a,ms1000200,iti,,null,img/motor_6.png,74,motor,,,,,,,
692,,582651,HierDyd89f9utl,ektu78e09a,ms1000200,motor,,70,img/motor_4.png,70,motor,4,280,1,0,0,,
null,,582760,HierDyd89f9utl,ektu78e09a,ms1000200,iti,,null,img/motor_4.png,70,motor,,,,,,,
619,,583399,HierDyd89f9utl,ektu78e09a,ms1000200,motor,,75,img/motor_7.png,75,motor,7,281,1,0,0,,
null,,583516,HierDyd89f9utl,ektu78e09a,ms1000200,iti,,null,img/motor_7.png,75,motor,,,,,,,
749,,584275,HierDyd89f9utl,ektu78e09a,ms1000200,motor,,70,img/motor_4.png,70,motor,4,282,1,0,0,,
null,,584384,HierDyd89f9utl,ektu78e09a,ms1000200,iti,,null,img/motor_4.png,70,motor,,,,,,,
84,,584476,HierDyd89f9utl,ektu78e09a,ms1000200,motor,,70,img/motor_3.png,68,motor,3,283,0,1,0,,
504,,584988,HierDyd89f9utl,ektu78e09a,ms1000200,motorRepeat,,68,img/motor_3.png,68,motor,3,283,1,0,0,,
null,,585096,HierDyd89f9utl,ektu78e09a,ms1000200,iti,,null,img/motor_3.png,68,motor,,,,,,,
532,,585642,HierDyd89f9utl,ektu78e09a,ms1000200,motor,,83,img/motor_2.png,83,motor,2,284,1,0,0,,
null,,585758,HierDyd89f9utl,ektu78e09a,ms1000200,iti,,null,img/motor_2.png,83,motor,,,,,,,
540,,586314,HierDyd89f9utl,ektu78e09a,ms1000200,motor,,74,img/motor_6.png,74,motor,6,285,1,0,0,,
null,,586424,HierDyd89f9utl,ektu78e09a,ms1000200,iti,,null,img/motor_6.png,74,motor,,,,,,,
460,,586898,HierDyd89f9utl,ektu78e09a,ms1000200,motor,,75,img/motor_7.png,75,motor,7,286,1,0,0,,
null,,587007,HierDyd89f9utl,ektu78e09a,ms1000200,iti,,null,img/motor_7.png,75,motor,,,,,,,
523,,587546,HierDyd89f9utl,ektu78e09a,ms1000200,motor,,72,img/motor_5.png,72,motor,5,287,1,0,0,,
null,,587661,HierDyd89f9utl,ektu78e09a,ms1000200,iti,,null,img/motor_5.png,72,motor,,,,,,,
420,,588098,HierDyd89f9utl,ektu78e09a,ms1000200,motor,,72,img/motor_5.png,72,motor,5,288,1,0,0,,
null,,588207,HierDyd89f9utl,ektu78e09a,ms1000200,iti,,null,img/motor_5.png,72,motor,,,,,,,
444,,588659,HierDyd89f9utl,ektu78e09a,ms1000200,motor,,76,img/motor_8.png,76,motor,8,289,1,0,0,,
null,,588774,HierDyd89f9utl,ektu78e09a,ms1000200,iti,,null,img/motor_8.png,76,motor,,,,,,,
437,,589219,HierDyd89f9utl,ektu78e09a,ms1000200,motor,,76,img/motor_8.png,76,motor,8,290,1,0,0,,
null,,589334,HierDyd89f9utl,ektu78e09a,ms1000200,iti,,null,img/motor_8.png,76,motor,,,,,,,
708,,590058,HierDyd89f9utl,ektu78e09a,ms1000200,motor,,68,img/motor_3.png,68,motor,3,291,1,0,0,,
null,,590167,HierDyd89f9utl,ektu78e09a,ms1000200,iti,,null,img/motor_3.png,68,motor,,,,,,,
620,,590801,HierDyd89f9utl,ektu78e09a,ms1000200,motor,,72,img/motor_5.png,72,motor,5,292,1,0,0,,
null,,590918,HierDyd89f9utl,ektu78e09a,ms1000200,iti,,null,img/motor_5.png,72,motor,,,,,,,
486,,591410,HierDyd89f9utl,ektu78e09a,ms1000200,motor,,76,img/motor_8.png,76,motor,8,293,1,0,0,,
null,,591519,HierDyd89f9utl,ektu78e09a,ms1000200,iti,,null,img/motor_8.png,76,motor,,,,,,,
341,,591867,HierDyd89f9utl,ektu78e09a,ms1000200,motor,,76,img/motor_8.png,76,motor,8,294,1,0,0,,
null,,591982,HierDyd89f9utl,ektu78e09a,ms1000200,iti,,null,img/motor_8.png,76,motor,,,,,,,
564,,592560,HierDyd89f9utl,ektu78e09a,ms1000200,motor,,74,img/motor_6.png,74,motor,6,295,1,0,0,,
null,,592677,HierDyd89f9utl,ektu78e09a,ms1000200,iti,,null,img/motor_6.png,74,motor,,,,,,,
558,,593249,HierDyd89f9utl,ektu78e09a,ms1000200,motor,,65,img/motor_1.png,65,motor,1,296,1,0,0,,
null,,593366,HierDyd89f9utl,ektu78e09a,ms1000200,iti,,null,img/motor_1.png,65,motor,,,,,,,
853,,594234,HierDyd89f9utl,ektu78e09a,ms1000200,motor,,83,img/motor_2.png,83,motor,2,297,1,0,0,,
null,,594349,HierDyd89f9utl,ektu78e09a,ms1000200,iti,,null,img/motor_2.png,83,motor,,,,,,,
549,,594906,HierDyd89f9utl,ektu78e09a,ms1000200,motor,,68,img/motor_3.png,68,motor,3,298,1,0,0,,
null,,595021,HierDyd89f9utl,ektu78e09a,ms1000200,iti,,null,img/motor_3.png,68,motor,,,,,,,
621,,595652,HierDyd89f9utl,ektu78e09a,ms1000200,motor,,75,img/motor_7.png,75,motor,7,299,1,0,0,,
null,,595760,HierDyd89f9utl,ektu78e09a,ms1000200,iti,,null,img/motor_7.png,75,motor,,,,,,,
562,,596332,HierDyd89f9utl,ektu78e09a,ms1000200,motor,,70,img/motor_4.png,70,motor,4,300,1,0,0,,
null,,596441,HierDyd89f9utl,ektu78e09a,ms1000200,iti,,null,img/motor_4.png,70,motor,,,,,,,
1203,,597652,HierDyd89f9utl,ektu78e09a,ms1000200,motor,,72,img/motor_5.png,72,motor,5,301,1,0,0,,
null,,597759,HierDyd89f9utl,ektu78e09a,ms1000200,iti,,null,img/motor_5.png,72,motor,,,,,,,
756,,598524,HierDyd89f9utl,ektu78e09a,ms1000200,motor,,75,img/motor_7.png,75,motor,7,302,1,0,0,,
null,,598639,HierDyd89f9utl,ektu78e09a,ms1000200,iti,,null,img/motor_7.png,75,motor,,,,,,,
619,,599268,HierDyd89f9utl,ektu78e09a,ms1000200,motor,,72,img/motor_4.png,70,motor,4,303,0,1,0,,
289,,599563,HierDyd89f9utl,ektu78e09a,ms1000200,motorRepeat,,70,img/motor_4.png,70,motor,4,303,1,0,0,,
null,,599671,HierDyd89f9utl,ektu78e09a,ms1000200,iti,,null,img/motor_4.png,70,motor,,,,,,,
1692,,601371,HierDyd89f9utl,ektu78e09a,ms1000200,motor,,75,img/motor_7.png,75,motor,7,304,1,0,0,,
null,,601479,HierDyd89f9utl,ektu78e09a,ms1000200,iti,,null,img/motor_7.png,75,motor,,,,,,,
1012,,602500,HierDyd89f9utl,ektu78e09a,ms1000200,motor,,72,img/motor_5.png,72,motor,5,305,1,0,0,,
null,,602609,HierDyd89f9utl,ektu78e09a,ms1000200,iti,,null,img/motor_5.png,72,motor,,,,,,,
435,,603059,HierDyd89f9utl,ektu78e09a,ms1000200,motor,,72,img/motor_5.png,72,motor,5,306,1,0,0,,
null,,603174,HierDyd89f9utl,ektu78e09a,ms1000200,iti,,null,img/motor_5.png,72,motor,,,,,,,
621,,603803,HierDyd89f9utl,ektu78e09a,ms1000200,motor,,65,img/motor_1.png,65,motor,1,307,1,0,0,,
null,,603912,HierDyd89f9utl,ektu78e09a,ms1000200,iti,,null,img/motor_1.png,65,motor,,,,,,,
571,,604491,HierDyd89f9utl,ektu78e09a,ms1000200,motor,,68,img/motor_2.png,83,motor,2,308,0,1,0,,
264,,604764,HierDyd89f9utl,ektu78e09a,ms1000200,motorRepeat,,83,img/motor_2.png,83,motor,2,308,1,0,0,,
null,,604879,HierDyd89f9utl,ektu78e09a,ms1000200,iti,,null,img/motor_2.png,83,motor,,,,,,,
1635,,606524,HierDyd89f9utl,ektu78e09a,ms1000200,motor,,68,img/motor_3.png,68,motor,3,309,1,0,0,,
null,,606638,HierDyd89f9utl,ektu78e09a,ms1000200,iti,,null,img/motor_3.png,68,motor,,,,,,,
492,,607140,HierDyd89f9utl,ektu78e09a,ms1000200,motor,,65,img/motor_1.png,65,motor,1,310,1,0,0,,
null,,607254,HierDyd89f9utl,ektu78e09a,ms1000200,iti,,null,img/motor_1.png,65,motor,,,,,,,
508,,607778,HierDyd89f9utl,ektu78e09a,ms1000200,motor,,83,img/motor_2.png,83,motor,2,311,1,0,0,,
null,,607894,HierDyd89f9utl,ektu78e09a,ms1000200,iti,,null,img/motor_2.png,83,motor,,,,,,,
541,,608443,HierDyd89f9utl,ektu78e09a,ms1000200,motor,,68,img/motor_3.png,68,motor,3,312,1,0,0,,
null,,608558,HierDyd89f9utl,ektu78e09a,ms1000200,iti,,null,img/motor_3.png,68,motor,,,,,,,
444,,609011,HierDyd89f9utl,ektu78e09a,ms1000200,motor,,68,img/motor_3.png,68,motor,3,313,1,0,0,,
null,,609126,HierDyd89f9utl,ektu78e09a,ms1000200,iti,,null,img/motor_3.png,68,motor,,,,,,,
516,,609658,HierDyd89f9utl,ektu78e09a,ms1000200,motor,,76,img/motor_8.png,76,motor,8,314,1,0,0,,
null,,609767,HierDyd89f9utl,ektu78e09a,ms1000200,iti,,null,img/motor_8.png,76,motor,,,,,,,
683,,610460,HierDyd89f9utl,ektu78e09a,ms1000200,motor,,70,img/motor_4.png,70,motor,4,315,1,0,0,,
null,,610574,HierDyd89f9utl,ektu78e09a,ms1000200,iti,,null,img/motor_4.png,70,motor,,,,,,,
588,,611172,HierDyd89f9utl,ektu78e09a,ms1000200,motor,,68,img/motor_3.png,68,motor,3,316,1,0,0,,
null,,611286,HierDyd89f9utl,ektu78e09a,ms1000200,iti,,null,img/motor_3.png,68,motor,,,,,,,
492,,611795,HierDyd89f9utl,ektu78e09a,ms1000200,motor,,76,img/motor_8.png,76,motor,8,317,1,0,0,,
null,,611903,HierDyd89f9utl,ektu78e09a,ms1000200,iti,,null,img/motor_8.png,76,motor,,,,,,,
652,,612564,HierDyd89f9utl,ektu78e09a,ms1000200,motor,,70,img/motor_4.png,70,motor,4,318,1,0,0,,
null,,612672,HierDyd89f9utl,ektu78e09a,ms1000200,iti,,null,img/motor_4.png,70,motor,,,,,,,
652,,613332,HierDyd89f9utl,ektu78e09a,ms1000200,motor,,75,img/motor_7.png,75,motor,7,319,1,0,0,,
null,,613440,HierDyd89f9utl,ektu78e09a,ms1000200,iti,,null,img/motor_7.png,75,motor,,,,,,,
564,,614012,HierDyd89f9utl,ektu78e09a,ms1000200,motor,,74,img/motor_6.png,74,motor,6,320,1,0,0,,
null,,614121,HierDyd89f9utl,ektu78e09a,ms1000200,iti,,null,img/motor_6.png,74,motor,,,,,,,
443,,614570,HierDyd89f9utl,ektu78e09a,ms1000200,motor,,72,img/motor_5.png,72,motor,5,321,1,0,0,,
null,,614679,HierDyd89f9utl,ektu78e09a,ms1000200,iti,,null,img/motor_5.png,72,motor,,,,,,,
485,,615172,HierDyd89f9utl,ektu78e09a,ms1000200,motor,,65,img/motor_1.png,65,motor,1,322,1,0,0,,
null,,615280,HierDyd89f9utl,ektu78e09a,ms1000200,iti,,null,img/motor_1.png,65,motor,,,,,,,
428,,615723,HierDyd89f9utl,ektu78e09a,ms1000200,motor,,65,img/motor_1.png,65,motor,1,323,1,0,0,,
null,,615838,HierDyd89f9utl,ektu78e09a,ms1000200,iti,,null,img/motor_1.png,65,motor,,,,,,,
652,,616499,HierDyd89f9utl,ektu78e09a,ms1000200,motor,,74,img/motor_6.png,74,motor,6,324,1,0,0,,
null,,616614,HierDyd89f9utl,ektu78e09a,ms1000200,iti,,null,img/motor_6.png,74,motor,,,,,,,
492,,617115,HierDyd89f9utl,ektu78e09a,ms1000200,motor,,72,img/motor_5.png,72,motor,5,325,1,0,0,,
null,,617230,HierDyd89f9utl,ektu78e09a,ms1000200,iti,,null,img/motor_5.png,72,motor,,,,,,,
692,,617932,HierDyd89f9utl,ektu78e09a,ms1000200,motor,,83,img/motor_2.png,83,motor,2,326,1,0,0,,
null,,618046,HierDyd89f9utl,ektu78e09a,ms1000200,iti,,null,img/motor_2.png,83,motor,,,,,,,
636,,618698,HierDyd89f9utl,ektu78e09a,ms1000200,motor,,70,img/motor_4.png,70,motor,4,327,1,0,0,,
null,,618815,HierDyd89f9utl,ektu78e09a,ms1000200,iti,,null,img/motor_4.png,70,motor,,,,,,,
435,,619266,HierDyd89f9utl,ektu78e09a,ms1000200,motor,,70,img/motor_4.png,70,motor,4,328,1,0,0,,
null,,619375,HierDyd89f9utl,ektu78e09a,ms1000200,iti,,null,img/motor_4.png,70,motor,,,,,,,
453,,619836,HierDyd89f9utl,ektu78e09a,ms1000200,motor,,76,img/motor_8.png,76,motor,8,329,1,0,0,,
null,,619950,HierDyd89f9utl,ektu78e09a,ms1000200,iti,,null,img/motor_8.png,76,motor,,,,,,,
764,,620724,HierDyd89f9utl,ektu78e09a,ms1000200,motor,,68,img/motor_3.png,68,motor,3,330,1,0,0,,
null,,620839,HierDyd89f9utl,ektu78e09a,ms1000200,iti,,null,img/motor_3.png,68,motor,,,,,,,
669,,621516,HierDyd89f9utl,ektu78e09a,ms1000200,motor,,75,img/motor_7.png,75,motor,7,331,1,0,0,,
null,,621624,HierDyd89f9utl,ektu78e09a,ms1000200,iti,,null,img/motor_7.png,75,motor,,,,,,,
1484,,623115,HierDyd89f9utl,ektu78e09a,ms1000200,motor,,68,img/motor_3.png,68,motor,3,332,1,0,0,,
null,,623230,HierDyd89f9utl,ektu78e09a,ms1000200,iti,,null,img/motor_3.png,68,motor,,,,,,,
358,,623602,HierDyd89f9utl,ektu78e09a,ms1000200,motor,,68,img/motor_3.png,68,motor,3,333,1,0,0,,
null,,623711,HierDyd89f9utl,ektu78e09a,ms1000200,iti,,null,img/motor_3.png,68,motor,,,,,,,
533,,624258,HierDyd89f9utl,ektu78e09a,ms1000200,motor,,83,img/motor_2.png,83,motor,2,334,1,0,0,,
null,,624368,HierDyd89f9utl,ektu78e09a,ms1000200,iti,,null,img/motor_2.png,83,motor,,,,,,,
484,,624867,HierDyd89f9utl,ektu78e09a,ms1000200,motor,,76,img/motor_8.png,76,motor,8,335,1,0,0,,
null,,624975,HierDyd89f9utl,ektu78e09a,ms1000200,iti,,null,img/motor_8.png,76,motor,,,,,,,
580,,625564,HierDyd89f9utl,ektu78e09a,ms1000200,motor,,70,img/motor_4.png,70,motor,4,336,1,0,0,,
null,,625679,HierDyd89f9utl,ektu78e09a,ms1000200,iti,,null,img/motor_4.png,70,motor,,,,,,,
500,,626194,HierDyd89f9utl,ektu78e09a,ms1000200,motor,,83,img/motor_2.png,83,motor,2,337,1,0,0,,
null,,626304,HierDyd89f9utl,ektu78e09a,ms1000200,iti,,null,img/motor_2.png,83,motor,,,,,,,
789,,627100,HierDyd89f9utl,ektu78e09a,ms1000200,motor,,74,img/motor_6.png,74,motor,6,338,1,0,0,,
null,,627209,HierDyd89f9utl,ektu78e09a,ms1000200,iti,,null,img/motor_6.png,74,motor,,,,,,,
1068,,628283,HierDyd89f9utl,ektu78e09a,ms1000200,motor,,70,img/motor_5.png,72,motor,5,339,0,1,0,,
256,,628547,HierDyd89f9utl,ektu78e09a,ms1000200,motorRepeat,,72,img/motor_5.png,72,motor,5,339,1,0,0,,
null,,628655,HierDyd89f9utl,ektu78e09a,ms1000200,iti,,null,img/motor_5.png,72,motor,,,,,,,
661,,629324,HierDyd89f9utl,ektu78e09a,ms1000200,motor,,68,img/motor_3.png,68,motor,3,340,1,0,0,,
null,,629439,HierDyd89f9utl,ektu78e09a,ms1000200,iti,,null,img/motor_3.png,68,motor,,,,,,,
652,,630106,HierDyd89f9utl,ektu78e09a,ms1000200,motor,,74,img/motor_6.png,74,motor,6,341,1,0,0,,
null,,630216,HierDyd89f9utl,ektu78e09a,ms1000200,iti,,null,img/motor_6.png,74,motor,,,,,,,
364,,630588,HierDyd89f9utl,ektu78e09a,ms1000200,motor,,74,img/motor_6.png,74,motor,6,342,1,0,0,,
null,,630696,HierDyd89f9utl,ektu78e09a,ms1000200,iti,,null,img/motor_6.png,74,motor,,,,,,,
676,,631380,HierDyd89f9utl,ektu78e09a,ms1000200,motor,,76,img/motor_8.png,76,motor,8,343,1,0,0,,
null,,631495,HierDyd89f9utl,ektu78e09a,ms1000200,iti,,null,img/motor_8.png,76,motor,,,,,,,
700,,632210,HierDyd89f9utl,ektu78e09a,ms1000200,motor,,68,img/motor_3.png,68,motor,3,344,1,0,0,,
null,,632326,HierDyd89f9utl,ektu78e09a,ms1000200,iti,,null,img/motor_3.png,68,motor,,,,,,,
837,,633171,HierDyd89f9utl,ektu78e09a,ms1000200,motor,,72,img/motor_5.png,72,motor,5,345,1,0,0,,
null,,633286,HierDyd89f9utl,ektu78e09a,ms1000200,iti,,null,img/motor_5.png,72,motor,,,,,,,
525,,633827,HierDyd89f9utl,ektu78e09a,ms1000200,motor,,65,img/motor_1.png,65,motor,1,346,1,0,0,,
null,,633942,HierDyd89f9utl,ektu78e09a,ms1000200,iti,,null,img/motor_1.png,65,motor,,,,,,,
373,,634324,HierDyd89f9utl,ektu78e09a,ms1000200,motor,,65,img/motor_1.png,65,motor,1,347,1,0,0,,
null,,634439,HierDyd89f9utl,ektu78e09a,ms1000200,iti,,null,img/motor_1.png,65,motor,,,,,,,
660,,635108,HierDyd89f9utl,ektu78e09a,ms1000200,motor,,83,img/motor_2.png,83,motor,2,348,1,0,0,,
null,,635223,HierDyd89f9utl,ektu78e09a,ms1000200,iti,,null,img/motor_2.png,83,motor,,,,,,,
516,,635748,HierDyd89f9utl,ektu78e09a,ms1000200,motor,,65,img/motor_1.png,65,motor,1,349,1,0,0,,
null,,635856,HierDyd89f9utl,ektu78e09a,ms1000200,iti,,null,img/motor_1.png,65,motor,,,,,,,
532,,636395,HierDyd89f9utl,ektu78e09a,ms1000200,motor,,76,img/motor_8.png,76,motor,8,350,1,0,0,,
null,,636510,HierDyd89f9utl,ektu78e09a,ms1000200,iti,,null,img/motor_8.png,76,motor,,,,,,,
789,,637308,HierDyd89f9utl,ektu78e09a,ms1000200,motor,,72,img/motor_5.png,72,motor,5,351,1,0,0,,
null,,637416,HierDyd89f9utl,ektu78e09a,ms1000200,iti,,null,img/motor_5.png,72,motor,,,,,,,
644,,638068,HierDyd89f9utl,ektu78e09a,ms1000200,motor,,70,img/motor_4.png,70,motor,4,352,1,0,0,,
null,,638176,HierDyd89f9utl,ektu78e09a,ms1000200,iti,,null,img/motor_4.png,70,motor,,,,,,,
628,,638818,HierDyd89f9utl,ektu78e09a,ms1000200,motor,,68,img/motor_2.png,83,motor,2,353,0,1,0,,
249,,639082,HierDyd89f9utl,ektu78e09a,ms1000200,motorRepeat,,83,img/motor_2.png,83,motor,2,353,1,0,0,,
null,,639192,HierDyd89f9utl,ektu78e09a,ms1000200,iti,,null,img/motor_2.png,83,motor,,,,,,,
852,,640052,HierDyd89f9utl,ektu78e09a,ms1000200,motor,,68,img/motor_3.png,68,motor,3,354,1,0,0,,
null,,640159,HierDyd89f9utl,ektu78e09a,ms1000200,iti,,null,img/motor_3.png,68,motor,,,,,,,
380,,640547,HierDyd89f9utl,ektu78e09a,ms1000200,motor,,68,img/motor_3.png,68,motor,3,355,1,0,0,,
null,,640655,HierDyd89f9utl,ektu78e09a,ms1000200,iti,,null,img/motor_3.png,68,motor,,,,,,,
565,,641228,HierDyd89f9utl,ektu78e09a,ms1000200,motor,,74,img/motor_6.png,74,motor,6,356,1,0,0,,
null,,641343,HierDyd89f9utl,ektu78e09a,ms1000200,iti,,null,img/motor_6.png,74,motor,,,,,,,
2043,,643395,HierDyd89f9utl,ektu78e09a,ms1000200,motor,,83,img/motor_2.png,83,motor,2,357,1,0,0,,
null,,643505,HierDyd89f9utl,ektu78e09a,ms1000200,iti,,null,img/motor_2.png,83,motor,,,,,,,
732,,644244,HierDyd89f9utl,ektu78e09a,ms1000200,motor,,75,img/motor_7.png,75,motor,7,358,1,0,0,,
null,,644352,HierDyd89f9utl,ektu78e09a,ms1000200,iti,,null,img/motor_7.png,75,motor,,,,,,,
475,,644836,HierDyd89f9utl,ektu78e09a,ms1000200,motor,,76,img/motor_8.png,76,motor,8,359,1,0,0,,
null,,644944,HierDyd89f9utl,ektu78e09a,ms1000200,iti,,null,img/motor_8.png,76,motor,,,,,,,
539,,645491,HierDyd89f9utl,ektu78e09a,ms1000200,motor,,83,img/motor_3.png,68,motor,3,360,0,1,0,,
311,,645812,HierDyd89f9utl,ektu78e09a,ms1000200,motorRepeat,,68,img/motor_3.png,68,motor,3,360,1,0,0,,
null,,645927,HierDyd89f9utl,ektu78e09a,ms1000200,iti,,null,img/motor_3.png,68,motor,,,,,,,
588,,646524,HierDyd89f9utl,ektu78e09a,ms1000200,motor,,72,img/motor_5.png,72,motor,5,361,1,0,0,,
null,,646639,HierDyd89f9utl,ektu78e09a,ms1000200,iti,,null,img/motor_5.png,72,motor,,,,,,,
997,,647646,HierDyd89f9utl,ektu78e09a,ms1000200,motor,,74,img/motor_6.png,74,motor,6,362,1,0,0,,
null,,647755,HierDyd89f9utl,ektu78e09a,ms1000200,iti,,null,img/motor_6.png,74,motor,,,,,,,
544,,648308,HierDyd89f9utl,ektu78e09a,ms1000200,motor,,76,img/motor_8.png,76,motor,8,363,1,0,0,,
null,,648417,HierDyd89f9utl,ektu78e09a,ms1000200,iti,,null,img/motor_8.png,76,motor,,,,,,,
554,,648980,HierDyd89f9utl,ektu78e09a,ms1000200,motor,,74,img/motor_6.png,74,motor,6,364,1,0,0,,
null,,649090,HierDyd89f9utl,ektu78e09a,ms1000200,iti,,null,img/motor_6.png,74,motor,,,,,,,
514,,649619,HierDyd89f9utl,ektu78e09a,ms1000200,motor,,65,img/motor_1.png,65,motor,1,365,1,0,0,,
null,,649736,HierDyd89f9utl,ektu78e09a,ms1000200,iti,,null,img/motor_1.png,65,motor,,,,,,,
571,,650316,HierDyd89f9utl,ektu78e09a,ms1000200,motor,,70,img/motor_4.png,70,motor,4,366,1,0,0,,
null,,650431,HierDyd89f9utl,ektu78e09a,ms1000200,iti,,null,img/motor_4.png,70,motor,,,,,,,
547,,650988,HierDyd89f9utl,ektu78e09a,ms1000200,motor,,68,img/motor_3.png,68,motor,3,367,1,0,0,,
null,,651096,HierDyd89f9utl,ektu78e09a,ms1000200,iti,,null,img/motor_3.png,68,motor,,,,,,,
859,,651964,HierDyd89f9utl,ektu78e09a,ms1000200,motor,,74,img/motor_6.png,74,motor,6,368,1,0,0,,
null,,652073,HierDyd89f9utl,ektu78e09a,ms1000200,iti,,null,img/motor_6.png,74,motor,,,,,,,
811,,652899,HierDyd89f9utl,ektu78e09a,ms1000200,motor,,83,img/motor_2.png,83,motor,2,369,1,0,0,,
null,,653008,HierDyd89f9utl,ektu78e09a,ms1000200,iti,,null,img/motor_2.png,83,motor,,,,,,,
604,,653621,HierDyd89f9utl,ektu78e09a,ms1000200,motor,,70,img/motor_4.png,70,motor,4,370,1,0,0,,
null,,653729,HierDyd89f9utl,ektu78e09a,ms1000200,iti,,null,img/motor_4.png,70,motor,,,,,,,
587,,654324,HierDyd89f9utl,ektu78e09a,ms1000200,motor,,68,img/motor_3.png,68,motor,3,371,1,0,0,,
null,,654439,HierDyd89f9utl,ektu78e09a,ms1000200,iti,,null,img/motor_3.png,68,motor,,,,,,,
492,,654939,HierDyd89f9utl,ektu78e09a,ms1000200,motor,,65,img/motor_1.png,65,motor,1,372,1,0,0,,
null,,655048,HierDyd89f9utl,ektu78e09a,ms1000200,iti,,null,img/motor_1.png,65,motor,,,,,,,
380,,655435,HierDyd89f9utl,ektu78e09a,ms1000200,motor,,65,img/motor_1.png,65,motor,1,373,1,0,0,,
null,,655544,HierDyd89f9utl,ektu78e09a,ms1000200,iti,,null,img/motor_1.png,65,motor,,,,,,,
556,,656107,HierDyd89f9utl,ektu78e09a,ms1000200,motor,,70,img/motor_4.png,70,motor,4,374,1,0,0,,
null,,656222,HierDyd89f9utl,ektu78e09a,ms1000200,iti,,null,img/motor_4.png,70,motor,,,,,,,
597,,656828,HierDyd89f9utl,ektu78e09a,ms1000200,motor,,83,img/motor_2.png,83,motor,2,375,1,0,0,,
null,,656944,HierDyd89f9utl,ektu78e09a,ms1000200,iti,,null,img/motor_2.png,83,motor,,,,,,,
700,,657652,HierDyd89f9utl,ektu78e09a,ms1000200,motor,,74,img/motor_6.png,74,motor,6,376,1,0,0,,
null,,657761,HierDyd89f9utl,ektu78e09a,ms1000200,iti,,null,img/motor_6.png,74,motor,,,,,,,
931,,658700,HierDyd89f9utl,ektu78e09a,ms1000200,motor,,72,img/motor_5.png,72,motor,5,377,1,0,0,,
null,,658815,HierDyd89f9utl,ektu78e09a,ms1000200,iti,,null,img/motor_5.png,72,motor,,,,,,,
499,,659324,HierDyd89f9utl,ektu78e09a,ms1000200,motor,,65,img/motor_1.png,65,motor,1,378,1,0,0,,
null,,659433,HierDyd89f9utl,ektu78e09a,ms1000200,iti,,null,img/motor_1.png,65,motor,,,,,,,
603,,660044,HierDyd89f9utl,ektu78e09a,ms1000200,motor,,74,img/motor_6.png,74,motor,6,379,1,0,0,,
null,,660160,HierDyd89f9utl,ektu78e09a,ms1000200,iti,,null,img/motor_6.png,74,motor,,,,,,,
627,,660795,HierDyd89f9utl,ektu78e09a,ms1000200,motor,,72,img/motor_5.png,72,motor,5,380,1,0,0,,
null,,660910,HierDyd89f9utl,ektu78e09a,ms1000200,iti,,null,img/motor_5.png,72,motor,,,,,,,
589,,661515,HierDyd89f9utl,ektu78e09a,ms1000200,motor,,74,img/motor_6.png,74,motor,6,381,1,0,0,,
null,,661631,HierDyd89f9utl,ektu78e09a,ms1000200,iti,,null,img/motor_6.png,74,motor,,,,,,,
532,,662171,HierDyd89f9utl,ektu78e09a,ms1000200,motor,,65,img/motor_1.png,65,motor,1,382,1,0,0,,
null,,662287,HierDyd89f9utl,ektu78e09a,ms1000200,iti,,null,img/motor_1.png,65,motor,,,,,,,
668,,662970,HierDyd89f9utl,ektu78e09a,ms1000200,motor,,75,img/motor_7.png,75,motor,7,383,1,0,0,,
null,,663086,HierDyd89f9utl,ektu78e09a,ms1000200,iti,,null,img/motor_7.png,75,motor,,,,,,,
660,,663756,HierDyd89f9utl,ektu78e09a,ms1000200,motor,,70,img/motor_4.png,70,motor,4,384,1,0,0,,
null,,663871,HierDyd89f9utl,ektu78e09a,ms1000200,iti,,null,img/motor_4.png,70,motor,,,,,,,
644,,664525,HierDyd89f9utl,ektu78e09a,ms1000200,motor,,75,img/motor_7.png,75,motor,7,385,1,0,0,,
null,,664634,HierDyd89f9utl,ektu78e09a,ms1000200,iti,,null,img/motor_7.png,75,motor,,,,,,,
603,,665244,HierDyd89f9utl,ektu78e09a,ms1000200,motor,,74,img/motor_6.png,74,motor,6,386,1,0,0,,
null,,665352,HierDyd89f9utl,ektu78e09a,ms1000200,iti,,null,img/motor_6.png,74,motor,,,,,,,
667,,666034,HierDyd89f9utl,ektu78e09a,ms1000200,motor,,68,img/motor_3.png,68,motor,3,387,1,0,0,,
null,,666144,HierDyd89f9utl,ektu78e09a,ms1000200,iti,,null,img/motor_3.png,68,motor,,,,,,,
836,,666989,HierDyd89f9utl,ektu78e09a,ms1000200,motor,,65,img/motor_1.png,65,motor,1,388,1,0,0,,
null,,667104,HierDyd89f9utl,ektu78e09a,ms1000200,iti,,null,img/motor_1.png,65,motor,,,,,,,
827,,667940,HierDyd89f9utl,ektu78e09a,ms1000200,motor,,68,img/motor_3.png,68,motor,3,389,1,0,0,,
null,,668049,HierDyd89f9utl,ektu78e09a,ms1000200,iti,,null,img/motor_3.png,68,motor,,,,,,,
1836,,669891,HierDyd89f9utl,ektu78e09a,ms1000200,motor,,74,img/motor_6.png,74,motor,6,390,1,0,0,,
null,,670007,HierDyd89f9utl,ektu78e09a,ms1000200,iti,,null,img/motor_6.png,74,motor,,,,,,,
764,,670787,HierDyd89f9utl,ektu78e09a,ms1000200,motor,,68,img/motor_2.png,83,motor,2,391,0,1,0,,
233,,671028,HierDyd89f9utl,ektu78e09a,ms1000200,motorRepeat,,83,img/motor_2.png,83,motor,2,391,1,0,0,,
null,,671136,HierDyd89f9utl,ektu78e09a,ms1000200,iti,,null,img/motor_2.png,83,motor,,,,,,,
764,,671915,HierDyd89f9utl,ektu78e09a,ms1000200,motor,,70,img/motor_4.png,70,motor,4,392,1,0,0,,
null,,672024,HierDyd89f9utl,ektu78e09a,ms1000200,iti,,null,img/motor_4.png,70,motor,,,,,,,
476,,672508,HierDyd89f9utl,ektu78e09a,ms1000200,motor,,76,img/motor_8.png,76,motor,8,393,1,0,0,,
null,,672624,HierDyd89f9utl,ektu78e09a,ms1000200,iti,,null,img/motor_8.png,76,motor,,,,,,,
725,,673356,HierDyd89f9utl,ektu78e09a,ms1000200,motor,,74,img/motor_6.png,74,motor,6,394,1,0,0,,
null,,673465,HierDyd89f9utl,ektu78e09a,ms1000200,iti,,null,img/motor_6.png,74,motor,,,,,,,
1212,,674684,HierDyd89f9utl,ektu78e09a,ms1000200,motor,,68,img/motor_3.png,68,motor,3,395,1,0,0,,
null,,674792,HierDyd89f9utl,ektu78e09a,ms1000200,iti,,null,img/motor_3.png,68,motor,,,,,,,
492,,675292,HierDyd89f9utl,ektu78e09a,ms1000200,motor,,83,img/motor_2.png,83,motor,2,396,1,0,0,,
null,,675400,HierDyd89f9utl,ektu78e09a,ms1000200,iti,,null,img/motor_2.png,83,motor,,,,,,,
659,,676069,HierDyd89f9utl,ektu78e09a,ms1000200,motor,,74,img/motor_6.png,74,motor,6,397,1,0,0,,
null,,676177,HierDyd89f9utl,ektu78e09a,ms1000200,iti,,null,img/motor_6.png,74,motor,,,,,,,
403,,676595,HierDyd89f9utl,ektu78e09a,ms1000200,motor,,74,img/motor_6.png,74,motor,6,398,1,0,0,,
null,,676710,HierDyd89f9utl,ektu78e09a,ms1000200,iti,,null,img/motor_6.png,74,motor,,,,,,,
686,,677404,HierDyd89f9utl,ektu78e09a,ms1000200,motor,,72,img/motor_5.png,72,motor,5,399,1,0,0,,
null,,677513,HierDyd89f9utl,ektu78e09a,ms1000200,iti,,null,img/motor_5.png,72,motor,,,,,,,
419,,677940,HierDyd89f9utl,ektu78e09a,ms1000200,motor,,72,img/motor_5.png,72,motor,5,400,1,0,0,,
null,,678049,HierDyd89f9utl,ektu78e09a,ms1000200,iti,,null,img/motor_5.png,72,motor,,,,,,,
668,,678731,HierDyd89f9utl,ektu78e09a,ms1000200,motor,,68,img/motor_3.png,68,motor,3,401,1,0,0,,
null,,678847,HierDyd89f9utl,ektu78e09a,ms1000200,iti,,null,img/motor_3.png,68,motor,,,,,,,
557,,679413,HierDyd89f9utl,ektu78e09a,ms1000200,motor,,70,img/motor_4.png,70,motor,4,402,1,0,0,,
null,,679527,HierDyd89f9utl,ektu78e09a,ms1000200,iti,,null,img/motor_4.png,70,motor,,,,,,,
580,,680122,HierDyd89f9utl,ektu78e09a,ms1000200,motor,,74,img/motor_5.png,72,motor,5,403,0,1,0,,
360,,680493,HierDyd89f9utl,ektu78e09a,ms1000200,motorRepeat,,72,img/motor_5.png,72,motor,5,403,1,0,0,,
null,,680601,HierDyd89f9utl,ektu78e09a,ms1000200,iti,,null,img/motor_5.png,72,motor,,,,,,,
732,,681341,HierDyd89f9utl,ektu78e09a,ms1000200,motor,,83,img/motor_2.png,83,motor,2,404,1,0,0,,
null,,681449,HierDyd89f9utl,ektu78e09a,ms1000200,iti,,null,img/motor_2.png,83,motor,,,,,,,
554,,682012,HierDyd89f9utl,ektu78e09a,ms1000200,motor,,65,img/motor_1.png,65,motor,1,405,1,0,0,,
null,,682128,HierDyd89f9utl,ektu78e09a,ms1000200,iti,,null,img/motor_1.png,65,motor,,,,,,,
868,,683004,HierDyd89f9utl,ektu78e09a,ms1000200,motor,,74,img/motor_6.png,74,motor,6,406,1,0,0,,
null,,683120,HierDyd89f9utl,ektu78e09a,ms1000200,iti,,null,img/motor_6.png,74,motor,,,,,,,
589,,683716,HierDyd89f9utl,ektu78e09a,ms1000200,motor,,65,img/motor_1.png,65,motor,1,407,1,0,0,,
null,,683831,HierDyd89f9utl,ektu78e09a,ms1000200,iti,,null,img/motor_1.png,65,motor,,,,,,,
645,,684484,HierDyd89f9utl,ektu78e09a,ms1000200,motor,,83,img/motor_2.png,83,motor,2,408,1,0,0,,
null,,684593,HierDyd89f9utl,ektu78e09a,ms1000200,iti,,null,img/motor_2.png,83,motor,,,,,,,
602,,685204,HierDyd89f9utl,ektu78e09a,ms1000200,motor,,83,img/motor_2.png,83,motor,2,409,1,0,0,,
null,,685312,HierDyd89f9utl,ektu78e09a,ms1000200,iti,,null,img/motor_2.png,83,motor,,,,,,,
675,,686003,HierDyd89f9utl,ektu78e09a,ms1000200,motor,,75,img/motor_7.png,75,motor,7,410,1,0,0,,
null,,686120,HierDyd89f9utl,ektu78e09a,ms1000200,iti,,null,img/motor_7.png,75,motor,,,,,,,
371,,686507,HierDyd89f9utl,ektu78e09a,ms1000200,motor,,75,img/motor_7.png,75,motor,7,411,1,0,0,,
null,,686615,HierDyd89f9utl,ektu78e09a,ms1000200,iti,,null,img/motor_7.png,75,motor,,,,,,,
918,,687547,HierDyd89f9utl,ektu78e09a,ms1000200,motor,,74,img/motor_6.png,74,motor,6,412,1,0,0,,
null,,687656,HierDyd89f9utl,ektu78e09a,ms1000200,iti,,null,img/motor_6.png,74,motor,,,,,,,
380,,688044,HierDyd89f9utl,ektu78e09a,ms1000200,motor,,74,img/motor_6.png,74,motor,6,413,1,0,0,,
null,,688152,HierDyd89f9utl,ektu78e09a,ms1000200,iti,,null,img/motor_6.png,74,motor,,,,,,,
596,,688755,HierDyd89f9utl,ektu78e09a,ms1000200,motor,,76,img/motor_8.png,76,motor,8,414,1,0,0,,
null,,688864,HierDyd89f9utl,ektu78e09a,ms1000200,iti,,null,img/motor_8.png,76,motor,,,,,,,
708,,689579,HierDyd89f9utl,ektu78e09a,ms1000200,motor,,68,img/motor_3.png,68,motor,3,415,1,0,0,,
null,,689694,HierDyd89f9utl,ektu78e09a,ms1000200,iti,,null,img/motor_3.png,68,motor,,,,,,,
613,,690316,HierDyd89f9utl,ektu78e09a,ms1000200,motor,,75,img/motor_7.png,75,motor,7,416,1,0,0,,
null,,690425,HierDyd89f9utl,ektu78e09a,ms1000200,iti,,null,img/motor_7.png,75,motor,,,,,,,
1180,,691612,HierDyd89f9utl,ektu78e09a,ms1000200,motor,,72,img/motor_5.png,72,motor,5,417,1,0,0,,
null,,691720,HierDyd89f9utl,ektu78e09a,ms1000200,iti,,null,img/motor_5.png,72,motor,,,,,,,
605,,692332,HierDyd89f9utl,ektu78e09a,ms1000200,motor,,65,img/motor_1.png,65,motor,1,418,1,0,0,,
null,,692441,HierDyd89f9utl,ektu78e09a,ms1000200,iti,,null,img/motor_1.png,65,motor,,,,,,,
378,,692829,HierDyd89f9utl,ektu78e09a,ms1000200,motor,,65,img/motor_1.png,65,motor,1,419,1,0,0,,
null,,692945,HierDyd89f9utl,ektu78e09a,ms1000200,iti,,null,img/motor_1.png,65,motor,,,,,,,
979,,693932,HierDyd89f9utl,ektu78e09a,ms1000200,motor,,68,img/motor_3.png,68,motor,3,420,1,0,0,,
null,,694041,HierDyd89f9utl,ektu78e09a,ms1000200,iti,,null,img/motor_3.png,68,motor,,,,,,,
947,,694997,HierDyd89f9utl,ektu78e09a,ms1000200,motor,,70,img/motor_4.png,70,motor,4,421,1,0,0,,
null,,695105,HierDyd89f9utl,ektu78e09a,ms1000200,iti,,null,img/motor_4.png,70,motor,,,,,,,
771,,695884,HierDyd89f9utl,ektu78e09a,ms1000200,motor,,72,img/motor_5.png,72,motor,5,422,1,0,0,,
null,,695999,HierDyd89f9utl,ektu78e09a,ms1000200,iti,,null,img/motor_5.png,72,motor,,,,,,,
508,,696523,HierDyd89f9utl,ektu78e09a,ms1000200,motor,,75,img/motor_7.png,75,motor,7,423,1,0,0,,
null,,696639,HierDyd89f9utl,ektu78e09a,ms1000200,iti,,null,img/motor_7.png,75,motor,,,,,,,
620,,697268,HierDyd89f9utl,ektu78e09a,ms1000200,motor,,74,img/motor_6.png,74,motor,6,424,1,0,0,,
null,,697383,HierDyd89f9utl,ektu78e09a,ms1000200,iti,,null,img/motor_6.png,74,motor,,,,,,,
595,,697987,HierDyd89f9utl,ektu78e09a,ms1000200,motor,,75,img/motor_7.png,75,motor,7,425,1,0,0,,
null,,698103,HierDyd89f9utl,ektu78e09a,ms1000200,iti,,null,img/motor_7.png,75,motor,,,,,,,
1246,,699363,HierDyd89f9utl,ektu78e09a,ms1000200,motor,,68,img/motor_3.png,68,motor,3,426,1,0,0,,
null,,699472,HierDyd89f9utl,ektu78e09a,ms1000200,iti,,null,img/motor_3.png,68,motor,,,,,,,
571,,700059,HierDyd89f9utl,ektu78e09a,ms1000200,motor,,70,img/motor_4.png,70,motor,4,427,1,0,0,,
null,,700176,HierDyd89f9utl,ektu78e09a,ms1000200,iti,,null,img/motor_4.png,70,motor,,,,,,,
604,,700788,HierDyd89f9utl,ektu78e09a,ms1000200,motor,,83,img/motor_2.png,83,motor,2,428,1,0,0,,
null,,700902,HierDyd89f9utl,ektu78e09a,ms1000200,iti,,null,img/motor_2.png,83,motor,,,,,,,
717,,701635,HierDyd89f9utl,ektu78e09a,ms1000200,motor,,72,img/motor_5.png,72,motor,5,429,1,0,0,,
null,,701751,HierDyd89f9utl,ektu78e09a,ms1000200,iti,,null,img/motor_5.png,72,motor,,,,,,,
924,,702692,HierDyd89f9utl,ektu78e09a,ms1000200,motor,,65,img/motor_2.png,83,motor,2,430,0,1,0,,
967,,703676,HierDyd89f9utl,ektu78e09a,ms1000200,motorRepeat,,83,img/motor_2.png,83,motor,2,430,1,0,0,,
null,,703785,HierDyd89f9utl,ektu78e09a,ms1000200,iti,,null,img/motor_2.png,83,motor,,,,,,,
1315,,705108,HierDyd89f9utl,ektu78e09a,ms1000200,motor,,76,img/motor_8.png,76,motor,8,431,1,0,0,,
null,,705217,HierDyd89f9utl,ektu78e09a,ms1000200,iti,,null,img/motor_8.png,76,motor,,,,,,,
762,,705995,HierDyd89f9utl,ektu78e09a,ms1000200,motor,,70,img/motor_4.png,70,motor,4,432,1,0,0,,
null,,706111,HierDyd89f9utl,ektu78e09a,ms1000200,iti,,null,img/motor_4.png,70,motor,,,,,,,
627,,706756,HierDyd89f9utl,ektu78e09a,ms1000200,motor,,76,img/motor_8.png,76,motor,8,433,1,0,0,,
null,,706871,HierDyd89f9utl,ektu78e09a,ms1000200,iti,,null,img/motor_8.png,76,motor,,,,,,,
596,,707476,HierDyd89f9utl,ektu78e09a,ms1000200,motor,,75,img/motor_7.png,75,motor,7,434,1,0,0,,
null,,707592,HierDyd89f9utl,ektu78e09a,ms1000200,iti,,null,img/motor_7.png,75,motor,,,,,,,
540,,708147,HierDyd89f9utl,ektu78e09a,ms1000200,motor,,76,img/motor_8.png,76,motor,8,435,1,0,0,,
null,,708256,HierDyd89f9utl,ektu78e09a,ms1000200,iti,,null,img/motor_8.png,76,motor,,,,,,,
883,,709148,HierDyd89f9utl,ektu78e09a,ms1000200,motor,,74,img/motor_6.png,74,motor,6,436,1,0,0,,
null,,709257,HierDyd89f9utl,ektu78e09a,ms1000200,iti,,null,img/motor_6.png,74,motor,,,,,,,
699,,709972,HierDyd89f9utl,ektu78e09a,ms1000200,motor,,70,img/motor_4.png,70,motor,4,437,1,0,0,,
null,,710081,HierDyd89f9utl,ektu78e09a,ms1000200,iti,,null,img/motor_4.png,70,motor,,,,,,,
883,,710972,HierDyd89f9utl,ektu78e09a,ms1000200,motor,,74,img/motor_6.png,74,motor,6,438,1,0,0,,
null,,711081,HierDyd89f9utl,ektu78e09a,ms1000200,iti,,null,img/motor_6.png,74,motor,,,,,,,
1363,,712465,HierDyd89f9utl,ektu78e09a,ms1000200,motor,,75,img/motor_7.png,75,motor,7,439,1,0,0,,
null,,712582,HierDyd89f9utl,ektu78e09a,ms1000200,iti,,null,img/motor_7.png,75,motor,,,,,,,
619,,713212,HierDyd89f9utl,ektu78e09a,ms1000200,motor,,83,img/motor_2.png,83,motor,2,440,1,0,0,,
null,,713321,HierDyd89f9utl,ektu78e09a,ms1000200,iti,,null,img/motor_2.png,83,motor,,,,,,,
515,,713844,HierDyd89f9utl,ektu78e09a,ms1000200,motor,,70,img/motor_4.png,70,motor,4,441,1,0,0,,
null,,713953,HierDyd89f9utl,ektu78e09a,ms1000200,iti,,null,img/motor_4.png,70,motor,,,,,,,
484,,714444,HierDyd89f9utl,ektu78e09a,ms1000200,motor,,75,img/motor_7.png,75,motor,7,442,1,0,0,,
null,,714560,HierDyd89f9utl,ektu78e09a,ms1000200,iti,,null,img/motor_7.png,75,motor,,,,,,,
484,,715059,HierDyd89f9utl,ektu78e09a,ms1000200,motor,,65,img/motor_1.png,65,motor,1,443,1,0,0,,
null,,715170,HierDyd89f9utl,ektu78e09a,ms1000200,iti,,null,img/motor_1.png,65,motor,,,,,,,
444,,715620,HierDyd89f9utl,ektu78e09a,ms1000200,motor,,76,img/motor_8.png,76,motor,8,444,1,0,0,,
null,,715736,HierDyd89f9utl,ektu78e09a,ms1000200,iti,,null,img/motor_8.png,76,motor,,,,,,,
571,,716323,HierDyd89f9utl,ektu78e09a,ms1000200,motor,,83,img/motor_2.png,83,motor,2,445,1,0,0,,
null,,716440,HierDyd89f9utl,ektu78e09a,ms1000200,iti,,null,img/motor_2.png,83,motor,,,,,,,
723,,717172,HierDyd89f9utl,ektu78e09a,ms1000200,motor,,72,img/motor_5.png,72,motor,5,446,1,0,0,,
null,,717288,HierDyd89f9utl,ektu78e09a,ms1000200,iti,,null,img/motor_5.png,72,motor,,,,,,,
492,,717788,HierDyd89f9utl,ektu78e09a,ms1000200,motor,,65,img/motor_1.png,65,motor,1,447,1,0,0,,
null,,717897,HierDyd89f9utl,ektu78e09a,ms1000200,iti,,null,img/motor_1.png,65,motor,,,,,,,
499,,718412,HierDyd89f9utl,ektu78e09a,ms1000200,motor,,72,img/motor_5.png,72,motor,5,448,1,0,0,,
null,,718528,HierDyd89f9utl,ektu78e09a,ms1000200,iti,,null,img/motor_5.png,72,motor,,,,,,,
628,,719172,HierDyd89f9utl,ektu78e09a,ms1000200,motor,,75,img/motor_7.png,75,motor,7,449,1,0,0,,
null,,719280,HierDyd89f9utl,ektu78e09a,ms1000200,iti,,null,img/motor_7.png,75,motor,,,,,,,
676,,719972,HierDyd89f9utl,ektu78e09a,ms1000200,motor,,70,img/motor_4.png,70,motor,4,450,1,0,0,,
null,,720087,HierDyd89f9utl,ektu78e09a,ms1000200,iti,,null,img/motor_4.png,70,motor,,,,,,,
635,,720739,HierDyd89f9utl,ektu78e09a,ms1000200,motor,,74,img/motor_5.png,72,motor,5,451,0,1,0,,
384,,721132,HierDyd89f9utl,ektu78e09a,ms1000200,motorRepeat,,72,img/motor_5.png,72,motor,5,451,1,0,0,,
null,,721247,HierDyd89f9utl,ektu78e09a,ms1000200,iti,,null,img/motor_5.png,72,motor,,,,,,,
397,,721659,HierDyd89f9utl,ektu78e09a,ms1000200,motor,,72,img/motor_5.png,72,motor,5,452,1,0,0,,
null,,721775,HierDyd89f9utl,ektu78e09a,ms1000200,iti,,null,img/motor_5.png,72,motor,,,,,,,
547,,722332,HierDyd89f9utl,ektu78e09a,ms1000200,motor,,76,img/motor_8.png,76,motor,8,453,1,0,0,,
null,,722448,HierDyd89f9utl,ektu78e09a,ms1000200,iti,,null,img/motor_8.png,76,motor,,,,,,,
500,,722963,HierDyd89f9utl,ektu78e09a,ms1000200,motor,,76,img/motor_8.png,76,motor,8,454,1,0,0,,
null,,723073,HierDyd89f9utl,ektu78e09a,ms1000200,iti,,null,img/motor_8.png,76,motor,,,,,,,
611,,723699,HierDyd89f9utl,ektu78e09a,ms1000200,motor,,83,img/motor_2.png,83,motor,2,455,1,0,0,,
null,,723816,HierDyd89f9utl,ektu78e09a,ms1000200,iti,,null,img/motor_2.png,83,motor,,,,,,,
580,,724411,HierDyd89f9utl,ektu78e09a,ms1000200,motor,,72,img/motor_5.png,72,motor,5,456,1,0,0,,
null,,724521,HierDyd89f9utl,ektu78e09a,ms1000200,iti,,null,img/motor_5.png,72,motor,,,,,,,
740,,725275,HierDyd89f9utl,ektu78e09a,ms1000200,motor,,68,img/motor_3.png,68,motor,3,457,1,0,0,,
null,,725385,HierDyd89f9utl,ektu78e09a,ms1000200,iti,,null,img/motor_3.png,68,motor,,,,,,,
627,,726027,HierDyd89f9utl,ektu78e09a,ms1000200,motor,,74,img/motor_6.png,74,motor,6,458,1,0,0,,
null,,726144,HierDyd89f9utl,ektu78e09a,ms1000200,iti,,null,img/motor_6.png,74,motor,,,,,,,
780,,726939,HierDyd89f9utl,ektu78e09a,ms1000200,motor,,68,img/motor_3.png,68,motor,3,459,1,0,0,,
null,,727056,HierDyd89f9utl,ektu78e09a,ms1000200,iti,,null,img/motor_3.png,68,motor,,,,,,,
692,,727757,HierDyd89f9utl,ektu78e09a,ms1000200,motor,,70,img/motor_4.png,70,motor,4,460,1,0,0,,
null,,727871,HierDyd89f9utl,ektu78e09a,ms1000200,iti,,null,img/motor_4.png,70,motor,,,,,,,
628,,728508,HierDyd89f9utl,ektu78e09a,ms1000200,motor,,70,img/motor_3.png,68,motor,3,461,0,1,0,,
256,,728773,HierDyd89f9utl,ektu78e09a,ms1000200,motorRepeat,,68,img/motor_3.png,68,motor,3,461,1,0,0,,
null,,728881,HierDyd89f9utl,ektu78e09a,ms1000200,iti,,null,img/motor_3.png,68,motor,,,,,,,
651,,729540,HierDyd89f9utl,ektu78e09a,ms1000200,motor,,83,img/motor_2.png,83,motor,2,462,1,0,0,,
null,,729649,HierDyd89f9utl,ektu78e09a,ms1000200,iti,,null,img/motor_2.png,83,motor,,,,,,,
531,,730189,HierDyd89f9utl,ektu78e09a,ms1000200,motor,,76,img/motor_8.png,76,motor,8,463,1,0,0,,
null,,730297,HierDyd89f9utl,ektu78e09a,ms1000200,iti,,null,img/motor_8.png,76,motor,,,,,,,
931,,731237,HierDyd89f9utl,ektu78e09a,ms1000200,motor,,83,img/motor_2.png,83,motor,2,464,1,0,0,,
null,,731352,HierDyd89f9utl,ektu78e09a,ms1000200,iti,,null,img/motor_2.png,83,motor,,,,,,,
539,,731908,HierDyd89f9utl,ektu78e09a,ms1000200,motor,,83,img/motor_2.png,83,motor,2,465,1,0,0,,
null,,732017,HierDyd89f9utl,ektu78e09a,ms1000200,iti,,null,img/motor_2.png,83,motor,,,,,,,
571,,732603,HierDyd89f9utl,ektu78e09a,ms1000200,motor,,75,img/motor_7.png,75,motor,7,466,1,0,0,,
null,,732714,HierDyd89f9utl,ektu78e09a,ms1000200,iti,,null,img/motor_7.png,75,motor,,,,,,,
707,,733429,HierDyd89f9utl,ektu78e09a,ms1000200,motor,,72,img/motor_5.png,72,motor,5,467,1,0,0,,
null,,733537,HierDyd89f9utl,ektu78e09a,ms1000200,iti,,null,img/motor_5.png,72,motor,,,,,,,
756,,734307,HierDyd89f9utl,ektu78e09a,ms1000200,motor,,68,img/motor_3.png,68,motor,3,468,1,0,0,,
null,,734424,HierDyd89f9utl,ektu78e09a,ms1000200,iti,,null,img/motor_3.png,68,motor,,,,,,,
637,,735068,HierDyd89f9utl,ektu78e09a,ms1000200,motor,,83,img/motor_2.png,83,motor,2,469,1,0,0,,
null,,735183,HierDyd89f9utl,ektu78e09a,ms1000200,iti,,null,img/motor_2.png,83,motor,,,,,,,
596,,735788,HierDyd89f9utl,ektu78e09a,ms1000200,motor,,72,img/motor_5.png,72,motor,5,470,1,0,0,,
null,,735904,HierDyd89f9utl,ektu78e09a,ms1000200,iti,,null,img/motor_5.png,72,motor,,,,,,,
907,,736821,HierDyd89f9utl,ektu78e09a,ms1000200,motor,,70,img/motor_4.png,70,motor,4,471,1,0,0,,
null,,736936,HierDyd89f9utl,ektu78e09a,ms1000200,iti,,null,img/motor_4.png,70,motor,,,,,,,
356,,737301,HierDyd89f9utl,ektu78e09a,ms1000200,motor,,70,img/motor_4.png,70,motor,4,472,1,0,0,,
null,,737409,HierDyd89f9utl,ektu78e09a,ms1000200,iti,,null,img/motor_4.png,70,motor,,,,,,,
514,,737932,HierDyd89f9utl,ektu78e09a,ms1000200,motor,,83,img/motor_2.png,83,motor,2,473,1,0,0,,
null,,738041,HierDyd89f9utl,ektu78e09a,ms1000200,iti,,null,img/motor_2.png,83,motor,,,,,,,
443,,738494,HierDyd89f9utl,ektu78e09a,ms1000200,motor,,65,img/motor_1.png,65,motor,1,474,1,0,0,,
null,,738609,HierDyd89f9utl,ektu78e09a,ms1000200,iti,,null,img/motor_1.png,65,motor,,,,,,,
475,,739093,HierDyd89f9utl,ektu78e09a,ms1000200,motor,,72,img/motor_5.png,72,motor,5,475,1,0,0,,
null,,739202,HierDyd89f9utl,ektu78e09a,ms1000200,iti,,null,img/motor_5.png,72,motor,,,,,,,
595,,739812,HierDyd89f9utl,ektu78e09a,ms1000200,motor,,83,img/motor_2.png,83,motor,2,476,1,0,0,,
null,,739922,HierDyd89f9utl,ektu78e09a,ms1000200,iti,,null,img/motor_2.png,83,motor,,,,,,,
410,,740341,HierDyd89f9utl,ektu78e09a,ms1000200,motor,,76,img/motor_8.png,76,motor,8,477,1,0,0,,
null,,740456,HierDyd89f9utl,ektu78e09a,ms1000200,iti,,null,img/motor_8.png,76,motor,,,,,,,
532,,740996,HierDyd89f9utl,ektu78e09a,ms1000200,motor,,75,img/motor_7.png,75,motor,7,478,1,0,0,,
null,,741112,HierDyd89f9utl,ektu78e09a,ms1000200,iti,,null,img/motor_7.png,75,motor,,,,,,,
964,,742092,HierDyd89f9utl,ektu78e09a,ms1000200,motor,,68,img/motor_3.png,68,motor,3,479,1,0,0,,
null,,742201,HierDyd89f9utl,ektu78e09a,ms1000200,iti,,null,img/motor_3.png,68,motor,,,,,,,
740,,742948,HierDyd89f9utl,ektu78e09a,ms1000200,motor,,70,img/motor_4.png,70,motor,4,480,1,0,0,,
null,,743057,HierDyd89f9utl,ektu78e09a,ms1000200,iti,,null,img/motor_4.png,70,motor,,,,,,,
676,,743741,HierDyd89f9utl,ektu78e09a,ms1000200,motor,,75,img/motor_7.png,75,motor,7,481,1,0,0,,
null,,743856,HierDyd89f9utl,ektu78e09a,ms1000200,iti,,null,img/motor_7.png,75,motor,,,,,,,
355,,744227,HierDyd89f9utl,ektu78e09a,ms1000200,motor,,75,img/motor_7.png,75,motor,7,482,1,0,0,,
null,,744344,HierDyd89f9utl,ektu78e09a,ms1000200,iti,,null,img/motor_7.png,75,motor,,,,,,,
548,,744901,HierDyd89f9utl,ektu78e09a,ms1000200,motor,,65,img/motor_1.png,65,motor,1,483,1,0,0,,
null,,745009,HierDyd89f9utl,ektu78e09a,ms1000200,iti,,null,img/motor_1.png,65,motor,,,,,,,
787,,745803,HierDyd89f9utl,ektu78e09a,ms1000200,motor,,68,img/motor_3.png,68,motor,3,484,1,0,0,,
null,,745913,HierDyd89f9utl,ektu78e09a,ms1000200,iti,,null,img/motor_3.png,68,motor,,,,,,,
404,,746325,HierDyd89f9utl,ektu78e09a,ms1000200,motor,,65,img/motor_1.png,65,motor,1,485,1,0,0,,
null,,746433,HierDyd89f9utl,ektu78e09a,ms1000200,iti,,null,img/motor_1.png,65,motor,,,,,,,
586,,747029,HierDyd89f9utl,ektu78e09a,ms1000200,motor,,72,img/motor_5.png,72,motor,5,486,1,0,0,,
null,,747144,HierDyd89f9utl,ektu78e09a,ms1000200,iti,,null,img/motor_5.png,72,motor,,,,,,,
652,,747805,HierDyd89f9utl,ektu78e09a,ms1000200,motor,,68,img/motor_4.png,70,motor,4,487,0,1,0,,
272,,748084,HierDyd89f9utl,ektu78e09a,ms1000200,motorRepeat,,70,img/motor_4.png,70,motor,4,487,1,0,0,,
null,,748193,HierDyd89f9utl,ektu78e09a,ms1000200,iti,,null,img/motor_4.png,70,motor,,,,,,,
49933,,798145,HierDyd89f9utl,ektu78e09a,ms1000200,,,,,,,,,,,,,
null,,800657,HierDyd89f9utl,ektu78e09a,ms1000200,prac,,null,img/image3.bmp,74,prac,,,0,,,1,
null,,801415,HierDyd89f9utl,ektu78e09a,ms1000200,feedback,,null,,na,prac,,,,,,,
1324,,802749,HierDyd89f9utl,ektu78e09a,ms1000200,prac,,72,img/image4.bmp,75,prac,,,0,,,2,
null,,803509,HierDyd89f9utl,ektu78e09a,ms1000200,feedback,,null,,na,prac,,,,,,,
951,,804477,HierDyd89f9utl,ektu78e09a,ms1000200,prac,,74,img/image5.bmp,72,prac,,,0,,,3,
null,,805238,HierDyd89f9utl,ektu78e09a,ms1000200,feedback,,null,,na,prac,,,,,,,
864,,806108,HierDyd89f9utl,ektu78e09a,ms1000200,prac,,72,img/image4.bmp,75,prac,,,0,,,4,
null,,806868,HierDyd89f9utl,ektu78e09a,ms1000200,feedback,,null,,na,prac,,,,,,,
721,,807598,HierDyd89f9utl,ektu78e09a,ms1000200,prac,,75,img/image4.bmp,75,prac,,,1,,,4,
null,,808356,HierDyd89f9utl,ektu78e09a,ms1000200,feedback,,null,,na,prac,,,,,,,
808,,809173,HierDyd89f9utl,ektu78e09a,ms1000200,prac,,74,img/image3.bmp,74,prac,,,1,,,4,
null,,809931,HierDyd89f9utl,ektu78e09a,ms1000200,feedback,,null,,na,prac,,,,,,,
714,,810653,HierDyd89f9utl,ektu78e09a,ms1000200,prac,,72,img/image5.bmp,72,prac,,,1,,,4,
null,,811418,HierDyd89f9utl,ektu78e09a,ms1000200,feedback,,null,,na,prac,,,,,,,
545,,811974,HierDyd89f9utl,ektu78e09a,ms1000200,prac,,75,img/image4.bmp,75,prac,,,1,,,4,
null,,812733,HierDyd89f9utl,ektu78e09a,ms1000200,feedback,,null,,na,prac,,,,,,,
10425,,823165,HierDyd89f9utl,ektu78e09a,ms1000200,,,,,,prac,,,,,,,
16727,,839903,HierDyd89f9utl,ektu78e09a,ms1000200,,,32,,,,,,,,,,
16808,,856720,HierDyd89f9utl,ektu78e09a,ms1000200,,,,,,prac,,,,,,,
804,,857534,HierDyd89f9utl,ektu78e09a,ms1000200,rl,,70,img/r_s_check.png,76,test,8,1,0,,,,pattern;color;shape
null,,858544,HierDyd89f9utl,ektu78e09a,ms1000200,feedback,,null,,na,test,,,,,,,
470,,859021,HierDyd89f9utl,ektu78e09a,ms1000200,rl,,68,img/r_d_check.png,75,test,7,NaN,0,,,,pattern;color;shape
null,,860031,HierDyd89f9utl,ektu78e09a,ms1000200,feedback,,null,,na,test,,,,,,,
262,,860302,HierDyd89f9utl,ektu78e09a,ms1000200,rl,,83,img/r_d_diag.png,68,test,3,NaN,0,,,,pattern;color;shape
null,,861312,HierDyd89f9utl,ektu78e09a,ms1000200,feedback,,null,,na,test,,,,,,,
262,,861581,HierDyd89f9utl,ektu78e09a,ms1000200,rl,,65,img/p_d_diag.png,65,test,1,NaN,1,,,,pattern;color;shape
null,,862590,HierDyd89f9utl,ektu78e09a,ms1000200,feedback,,null,,na,test,,,,,,,
1006,,863606,HierDyd89f9utl,ektu78e09a,ms1000200,rl,,72,img/r_s_diag.png,70,test,4,NaN,0,,,,pattern;color;shape
null,,864615,HierDyd89f9utl,ektu78e09a,ms1000200,feedback,,null,,na,test,,,,,,,
974,,865598,HierDyd89f9utl,ektu78e09a,ms1000200,rl,,83,img/p_s_diag.png,83,test,2,NaN,1,,,,pattern;color;shape
null,,866607,HierDyd89f9utl,ektu78e09a,ms1000200,feedback,,null,,na,test,,,,,,,
942,,867565,HierDyd89f9utl,ektu78e09a,ms1000200,rl,,68,img/p_d_check.png,72,test,5,NaN,0,,,,pattern;color;shape
null,,868574,HierDyd89f9utl,ektu78e09a,ms1000200,feedback,,null,,na,test,,,,,,,
888,,869469,HierDyd89f9utl,ektu78e09a,ms1000200,rl,,74,img/r_d_check.png,75,test,7,NaN,0,,,,pattern;color;shape
null,,870479,HierDyd89f9utl,ektu78e09a,ms1000200,feedback,,null,,na,test,,,,,,,
991,,871478,HierDyd89f9utl,ektu78e09a,ms1000200,rl,,83,img/p_d_diag.png,65,test,1,NaN,0,,,,pattern;color;shape
null,,872487,HierDyd89f9utl,ektu78e09a,ms1000200,feedback,,null,,na,test,,,,,,,
903,,873398,HierDyd89f9utl,ektu78e09a,ms1000200,rl,,83,img/p_s_diag.png,83,test,2,NaN,1,,,,pattern;color;shape
null,,874407,HierDyd89f9utl,ektu78e09a,ms1000200,feedback,,null,,na,test,,,,,,,
1367,,875789,HierDyd89f9utl,ektu78e09a,ms1000200,rl,,68,img/p_s_check.png,74,test,6,NaN,0,,,,pattern;color;shape
null,,876799,HierDyd89f9utl,ektu78e09a,ms1000200,feedback,,null,,na,test,,,,,,,
839,,877646,HierDyd89f9utl,ektu78e09a,ms1000200,rl,,76,img/r_s_diag.png,70,test,4,NaN,0,,,,pattern;color;shape
null,,878654,HierDyd89f9utl,ektu78e09a,ms1000200,feedback,,null,,na,test,,,,,,,
847,,879517,HierDyd89f9utl,ektu78e09a,ms1000200,rl,,74,img/p_s_check.png,74,test,6,NaN,1,,,,pattern;color;shape
null,,880526,HierDyd89f9utl,ektu78e09a,ms1000200,feedback,,null,,na,test,,,,,,,
1183,,881718,HierDyd89f9utl,ektu78e09a,ms1000200,rl,,75,img/r_d_diag.png,68,test,3,NaN,0,,,,pattern;color;shape
null,,882734,HierDyd89f9utl,ektu78e09a,ms1000200,feedback,,null,,na,test,,,,,,,
