"rt","responses","time_elapsed","subject","prolificID","demoID","trialType","question_order","key_press","stim","corrresp","phase","stimNum","trialNum","corr","repeatTrial","motorSwitch","pracCounter","hierarchy"
"750404","{""Q0"":""ms1000355""}","750441","HierDy1bdtr6au","m470azc24a","ms1000355","","","","","","","","","","","","",""
"9071","","759520","HierDy1bdtr6au","m470azc24a","ms1000355","","","","","","","","","","","","",""
"","","762643","HierDy1bdtr6au","m470azc24a","ms1000355","fullscreen","","","","","","","","","","","",""
"26837","{""Vision"":""Yes"",""Handedness"":""Left"",""Gender"":""male""}","789495","HierDy1bdtr6au","m470azc24a","ms1000355","","[0,1,2]","","","","","","","","","","",""
"2722","{""Q0"":""20""}","792234","HierDy1bdtr6au","m470azc24a","ms1000355","","","","","","","","","","","","",""
"73177","","865418","HierDy1bdtr6au","m470azc24a","ms1000355","","","","","","","","","","","","",""
"8522","","873949","HierDy1bdtr6au","m470azc24a","ms1000355","motor","","76","img/motor_8.png","76","motor","8","1","1","0","0","",""
"null","","874059","HierDy1bdtr6au","m470azc24a","ms1000355","iti","","null","img/motor_8.png","76","motor","","","","","","",""
"1243","","875310","HierDy1bdtr6au","m470azc24a","ms1000355","motor","","75","img/motor_7.png","75","motor","7","2","1","0","0","",""
"null","","875424","HierDy1bdtr6au","m470azc24a","ms1000355","iti","","null","img/motor_7.png","75","motor","","","","","","",""
"1123","","876558","HierDy1bdtr6au","m470azc24a","ms1000355","motor","","72","img/motor_5.png","72","motor","5","3","1","0","0","",""
"null","","876673","HierDy1bdtr6au","m470azc24a","ms1000355","iti","","null","img/motor_5.png","72","motor","","","","","","",""
"804","","877485","HierDy1bdtr6au","m470azc24a","ms1000355","motor","","76","img/motor_8.png","76","motor","8","4","1","0","0","",""
"null","","877593","HierDy1bdtr6au","m470azc24a","ms1000355","iti","","null","img/motor_8.png","76","motor","","","","","","",""
"7405","","885006","HierDy1bdtr6au","m470azc24a","ms1000355","motor","","72","img/motor_5.png","72","motor","5","5","1","0","0","",""
"null","","885114","HierDy1bdtr6au","m470azc24a","ms1000355","iti","","null","img/motor_5.png","72","motor","","","","","","",""
"1211","","886334","HierDy1bdtr6au","m470azc24a","ms1000355","motor","","68","img/motor_3.png","68","motor","3","6","1","0","0","",""
"null","","886448","HierDy1bdtr6au","m470azc24a","ms1000355","iti","","null","img/motor_3.png","68","motor","","","","","","",""
"549","","887006","HierDy1bdtr6au","m470azc24a","ms1000355","motor","","68","img/motor_3.png","68","motor","3","7","1","0","0","",""
"null","","887114","HierDy1bdtr6au","m470azc24a","ms1000355","iti","","null","img/motor_3.png","68","motor","","","","","","",""
"572","","887694","HierDy1bdtr6au","m470azc24a","ms1000355","motor","","76","img/motor_8.png","76","motor","8","8","1","0","0","",""
"null","","887808","HierDy1bdtr6au","m470azc24a","ms1000355","iti","","null","img/motor_8.png","76","motor","","","","","","",""
"613","","888429","HierDy1bdtr6au","m470azc24a","ms1000355","motor","","75","img/motor_7.png","75","motor","7","9","1","0","0","",""
"null","","888544","HierDy1bdtr6au","m470azc24a","ms1000355","iti","","null","img/motor_7.png","75","motor","","","","","","",""
"837","","889389","HierDy1bdtr6au","m470azc24a","ms1000355","motor","","83","img/motor_2.png","83","motor","2","10","1","0","0","",""
"null","","889498","HierDy1bdtr6au","m470azc24a","ms1000355","iti","","null","img/motor_2.png","83","motor","","","","","","",""
"876","","890380","HierDy1bdtr6au","m470azc24a","ms1000355","motor","","70","img/motor_4.png","70","motor","4","11","1","0","0","",""
"null","","890489","HierDy1bdtr6au","m470azc24a","ms1000355","iti","","null","img/motor_4.png","70","motor","","","","","","",""
"542","","891038","HierDy1bdtr6au","m470azc24a","ms1000355","motor","","83","img/motor_2.png","83","motor","2","12","1","0","0","",""
"null","","891146","HierDy1bdtr6au","m470azc24a","ms1000355","iti","","null","img/motor_2.png","83","motor","","","","","","",""
"579","","891734","HierDy1bdtr6au","m470azc24a","ms1000355","motor","","65","img/motor_1.png","65","motor","1","13","1","0","0","",""
"null","","891849","HierDy1bdtr6au","m470azc24a","ms1000355","iti","","null","img/motor_1.png","65","motor","","","","","","",""
"597","","892454","HierDy1bdtr6au","m470azc24a","ms1000355","motor","","83","img/motor_2.png","83","motor","2","14","1","0","0","",""
"null","","892562","HierDy1bdtr6au","m470azc24a","ms1000355","iti","","null","img/motor_2.png","83","motor","","","","","","",""
"1644","","894220","HierDy1bdtr6au","m470azc24a","ms1000355","motor","","74","img/motor_6.png","74","motor","6","15","1","0","0","",""
"null","","894329","HierDy1bdtr6au","m470azc24a","ms1000355","iti","","null","img/motor_6.png","74","motor","","","","","","",""
"555","","894892","HierDy1bdtr6au","m470azc24a","ms1000355","motor","","75","img/motor_7.png","75","motor","7","16","1","0","0","",""
"null","","895000","HierDy1bdtr6au","m470azc24a","ms1000355","iti","","null","img/motor_7.png","75","motor","","","","","","",""
"406","","895414","HierDy1bdtr6au","m470azc24a","ms1000355","motor","","76","img/motor_8.png","76","motor","8","17","1","0","0","",""
"null","","895528","HierDy1bdtr6au","m470azc24a","ms1000355","iti","","null","img/motor_8.png","76","motor","","","","","","",""
"637","","896180","HierDy1bdtr6au","m470azc24a","ms1000355","motor","","65","img/motor_1.png","65","motor","1","18","1","0","0","",""
"null","","896288","HierDy1bdtr6au","m470azc24a","ms1000355","iti","","null","img/motor_1.png","65","motor","","","","","","",""
"509","","896812","HierDy1bdtr6au","m470azc24a","ms1000355","motor","","76","img/motor_8.png","76","motor","8","19","1","0","0","",""
"null","","896927","HierDy1bdtr6au","m470azc24a","ms1000355","iti","","null","img/motor_8.png","76","motor","","","","","","",""
"1230","","898172","HierDy1bdtr6au","m470azc24a","ms1000355","motor","","68","img/motor_3.png","68","motor","3","20","1","0","0","",""
"null","","898281","HierDy1bdtr6au","m470azc24a","ms1000355","iti","","null","img/motor_3.png","68","motor","","","","","","",""
"486","","898772","HierDy1bdtr6au","m470azc24a","ms1000355","motor","","76","img/motor_8.png","76","motor","8","21","1","0","0","",""
"null","","898880","HierDy1bdtr6au","m470azc24a","ms1000355","iti","","null","img/motor_8.png","76","motor","","","","","","",""
"797","","899686","HierDy1bdtr6au","m470azc24a","ms1000355","motor","","74","img/motor_6.png","74","motor","6","22","1","0","0","",""
"null","","899794","HierDy1bdtr6au","m470azc24a","ms1000355","iti","","null","img/motor_6.png","74","motor","","","","","","",""
"613","","900414","HierDy1bdtr6au","m470azc24a","ms1000355","motor","","72","img/motor_5.png","72","motor","5","23","1","0","0","",""
"null","","900528","HierDy1bdtr6au","m470azc24a","ms1000355","iti","","null","img/motor_5.png","72","motor","","","","","","",""
"494","","901029","HierDy1bdtr6au","m470azc24a","ms1000355","motor","","74","img/motor_6.png","74","motor","6","24","1","0","0","",""
"null","","901143","HierDy1bdtr6au","m470azc24a","ms1000355","iti","","null","img/motor_6.png","74","motor","","","","","","",""
"750","","901903","HierDy1bdtr6au","m470azc24a","ms1000355","motor","","70","img/motor_4.png","70","motor","4","25","1","0","0","",""
"null","","902016","HierDy1bdtr6au","m470azc24a","ms1000355","iti","","null","img/motor_4.png","70","motor","","","","","","",""
"573","","902598","HierDy1bdtr6au","m470azc24a","ms1000355","motor","","74","img/motor_6.png","74","motor","6","26","1","0","0","",""
"null","","902712","HierDy1bdtr6au","m470azc24a","ms1000355","iti","","null","img/motor_6.png","74","motor","","","","","","",""
"501","","903223","HierDy1bdtr6au","m470azc24a","ms1000355","motor","","74","img/motor_6.png","74","motor","6","27","1","0","0","",""
"null","","903336","HierDy1bdtr6au","m470azc24a","ms1000355","iti","","null","img/motor_6.png","74","motor","","","","","","",""
"662","","904005","HierDy1bdtr6au","m470azc24a","ms1000355","motor","","83","img/motor_2.png","83","motor","2","28","1","0","0","",""
"null","","904113","HierDy1bdtr6au","m470azc24a","ms1000355","iti","","null","img/motor_2.png","83","motor","","","","","","",""
"637","","904758","HierDy1bdtr6au","m470azc24a","ms1000355","motor","","72","img/motor_5.png","72","motor","5","29","1","0","0","",""
"null","","904872","HierDy1bdtr6au","m470azc24a","ms1000355","iti","","null","img/motor_5.png","72","motor","","","","","","",""
"701","","905582","HierDy1bdtr6au","m470azc24a","ms1000355","motor","","75","img/motor_7.png","75","motor","7","30","1","0","0","",""
"null","","905696","HierDy1bdtr6au","m470azc24a","ms1000355","iti","","null","img/motor_7.png","75","motor","","","","","","",""
"413","","906123","HierDy1bdtr6au","m470azc24a","ms1000355","motor","","75","img/motor_7.png","75","motor","7","31","1","0","0","",""
"null","","906233","HierDy1bdtr6au","m470azc24a","ms1000355","iti","","null","img/motor_7.png","75","motor","","","","","","",""
"812","","907054","HierDy1bdtr6au","m470azc24a","ms1000355","motor","","68","img/motor_3.png","68","motor","3","32","1","0","0","",""
"null","","907168","HierDy1bdtr6au","m470azc24a","ms1000355","iti","","null","img/motor_3.png","68","motor","","","","","","",""
"517","","907700","HierDy1bdtr6au","m470azc24a","ms1000355","motor","","72","img/motor_5.png","72","motor","5","33","1","0","0","",""
"null","","907815","HierDy1bdtr6au","m470azc24a","ms1000355","iti","","null","img/motor_5.png","72","motor","","","","","","",""
"797","","908622","HierDy1bdtr6au","m470azc24a","ms1000355","motor","","70","img/motor_4.png","70","motor","4","34","1","0","0","",""
"null","","908736","HierDy1bdtr6au","m470azc24a","ms1000355","iti","","null","img/motor_4.png","70","motor","","","","","","",""
"711","","909454","HierDy1bdtr6au","m470azc24a","ms1000355","motor","","83","img/motor_1.png","65","motor","1","35","0","1","0","",""
"16","","909480","HierDy1bdtr6au","m470azc24a","ms1000355","motorRepeat","","65","img/motor_1.png","65","motor","1","35","1","0","0","",""
"null","","909588","HierDy1bdtr6au","m470azc24a","ms1000355","iti","","null","img/motor_1.png","65","motor","","","","","","",""
"416","","910013","HierDy1bdtr6au","m470azc24a","ms1000355","motor","","65","img/motor_1.png","65","motor","1","36","1","0","0","",""
"null","","910128","HierDy1bdtr6au","m470azc24a","ms1000355","iti","","null","img/motor_1.png","65","motor","","","","","","",""
"581","","910718","HierDy1bdtr6au","m470azc24a","ms1000355","motor","","83","img/motor_2.png","83","motor","2","37","1","0","0","",""
"null","","910832","HierDy1bdtr6au","m470azc24a","ms1000355","iti","","null","img/motor_2.png","83","motor","","","","","","",""
"517","","911364","HierDy1bdtr6au","m470azc24a","ms1000355","motor","","65","img/motor_1.png","65","motor","1","38","1","0","0","",""
"null","","911479","HierDy1bdtr6au","m470azc24a","ms1000355","iti","","null","img/motor_1.png","65","motor","","","","","","",""
"502","","911990","HierDy1bdtr6au","m470azc24a","ms1000355","motor","","65","img/motor_1.png","65","motor","1","39","1","0","0","",""
"null","","912098","HierDy1bdtr6au","m470azc24a","ms1000355","iti","","null","img/motor_1.png","65","motor","","","","","","",""
"661","","912766","HierDy1bdtr6au","m470azc24a","ms1000355","motor","","75","img/motor_6.png","74","motor","6","40","0","1","0","",""
"2016","","914790","HierDy1bdtr6au","m470azc24a","ms1000355","motorRepeat","","74","img/motor_6.png","74","motor","6","40","1","0","0","",""
"null","","914898","HierDy1bdtr6au","m470azc24a","ms1000355","iti","","null","img/motor_6.png","74","motor","","","","","","",""
"445","","915349","HierDy1bdtr6au","m470azc24a","ms1000355","motor","","76","img/motor_8.png","76","motor","8","41","1","0","0","",""
"null","","915457","HierDy1bdtr6au","m470azc24a","ms1000355","iti","","null","img/motor_8.png","76","motor","","","","","","",""
"885","","916348","HierDy1bdtr6au","m470azc24a","ms1000355","motor","","70","img/motor_4.png","70","motor","4","42","1","0","0","",""
"null","","916462","HierDy1bdtr6au","m470azc24a","ms1000355","iti","","null","img/motor_4.png","70","motor","","","","","","",""
"503","","916981","HierDy1bdtr6au","m470azc24a","ms1000355","motor","","70","img/motor_4.png","70","motor","4","43","1","0","0","",""
"null","","917095","HierDy1bdtr6au","m470azc24a","ms1000355","iti","","null","img/motor_4.png","70","motor","","","","","","",""
"645","","917756","HierDy1bdtr6au","m470azc24a","ms1000355","motor","","72","img/motor_5.png","72","motor","5","44","1","0","0","",""
"null","","917865","HierDy1bdtr6au","m470azc24a","ms1000355","iti","","null","img/motor_5.png","72","motor","","","","","","",""
"669","","918541","HierDy1bdtr6au","m470azc24a","ms1000355","motor","","83","img/motor_2.png","83","motor","2","45","1","0","0","",""
"null","","918650","HierDy1bdtr6au","m470azc24a","ms1000355","iti","","null","img/motor_2.png","83","motor","","","","","","",""
"580","","919244","HierDy1bdtr6au","m470azc24a","ms1000355","motor","","75","img/motor_7.png","75","motor","7","46","1","0","0","",""
"null","","919354","HierDy1bdtr6au","m470azc24a","ms1000355","iti","","null","img/motor_7.png","75","motor","","","","","","",""
"675","","920038","HierDy1bdtr6au","m470azc24a","ms1000355","motor","","83","img/motor_2.png","83","motor","2","47","1","0","0","",""
"null","","920147","HierDy1bdtr6au","m470azc24a","ms1000355","iti","","null","img/motor_2.png","83","motor","","","","","","",""
"531","","920686","HierDy1bdtr6au","m470azc24a","ms1000355","motor","","72","img/motor_5.png","72","motor","5","48","1","0","0","",""
"null","","920794","HierDy1bdtr6au","m470azc24a","ms1000355","iti","","null","img/motor_5.png","72","motor","","","","","","",""
"515","","921317","HierDy1bdtr6au","m470azc24a","ms1000355","motor","","76","img/motor_8.png","76","motor","8","49","1","0","0","",""
"null","","921426","HierDy1bdtr6au","m470azc24a","ms1000355","iti","","null","img/motor_8.png","76","motor","","","","","","",""
"612","","922046","HierDy1bdtr6au","m470azc24a","ms1000355","motor","","65","img/motor_1.png","65","motor","1","50","1","0","0","",""
"null","","922154","HierDy1bdtr6au","m470azc24a","ms1000355","iti","","null","img/motor_1.png","65","motor","","","","","","",""
"491","","922660","HierDy1bdtr6au","m470azc24a","ms1000355","motor","","76","img/motor_8.png","76","motor","8","51","1","0","0","",""
"null","","922774","HierDy1bdtr6au","m470azc24a","ms1000355","iti","","null","img/motor_8.png","76","motor","","","","","","",""
"463","","923245","HierDy1bdtr6au","m470azc24a","ms1000355","motor","","72","img/motor_5.png","72","motor","5","52","1","0","0","",""
"null","","923354","HierDy1bdtr6au","m470azc24a","ms1000355","iti","","null","img/motor_5.png","72","motor","","","","","","",""
"716","","924077","HierDy1bdtr6au","m470azc24a","ms1000355","motor","","70","img/motor_4.png","70","motor","4","53","1","0","0","",""
"null","","924186","HierDy1bdtr6au","m470azc24a","ms1000355","iti","","null","img/motor_4.png","70","motor","","","","","","",""
"437","","924636","HierDy1bdtr6au","m470azc24a","ms1000355","motor","","76","img/motor_8.png","76","motor","8","54","1","0","0","",""
"null","","924751","HierDy1bdtr6au","m470azc24a","ms1000355","iti","","null","img/motor_8.png","76","motor","","","","","","",""
"622","","925387","HierDy1bdtr6au","m470azc24a","ms1000355","motor","","83","img/motor_2.png","83","motor","2","55","1","0","0","",""
"null","","925497","HierDy1bdtr6au","m470azc24a","ms1000355","iti","","null","img/motor_2.png","83","motor","","","","","","",""
"668","","926174","HierDy1bdtr6au","m470azc24a","ms1000355","motor","","68","img/motor_3.png","68","motor","3","56","1","0","0","",""
"null","","926282","HierDy1bdtr6au","m470azc24a","ms1000355","iti","","null","img/motor_3.png","68","motor","","","","","","",""
"459","","926750","HierDy1bdtr6au","m470azc24a","ms1000355","motor","","76","img/motor_8.png","76","motor","8","57","1","0","0","",""
"null","","926858","HierDy1bdtr6au","m470azc24a","ms1000355","iti","","null","img/motor_8.png","76","motor","","","","","","",""
"2124","","928995","HierDy1bdtr6au","m470azc24a","ms1000355","motor","","75","img/motor_7.png","75","motor","7","58","1","0","0","",""
"null","","929111","HierDy1bdtr6au","m470azc24a","ms1000355","iti","","null","img/motor_7.png","75","motor","","","","","","",""
"758","","929884","HierDy1bdtr6au","m470azc24a","ms1000355","motor","","70","img/motor_4.png","70","motor","4","59","1","0","0","",""
"null","","929993","HierDy1bdtr6au","m470azc24a","ms1000355","iti","","null","img/motor_4.png","70","motor","","","","","","",""
"582","","930588","HierDy1bdtr6au","m470azc24a","ms1000355","motor","","68","img/motor_3.png","68","motor","3","60","1","0","0","",""
"null","","930697","HierDy1bdtr6au","m470azc24a","ms1000355","iti","","null","img/motor_3.png","68","motor","","","","","","",""
"893","","931597","HierDy1bdtr6au","m470azc24a","ms1000355","motor","","65","img/motor_1.png","65","motor","1","61","1","0","0","",""
"null","","931705","HierDy1bdtr6au","m470azc24a","ms1000355","iti","","null","img/motor_1.png","65","motor","","","","","","",""
"572","","932286","HierDy1bdtr6au","m470azc24a","ms1000355","motor","","83","img/motor_2.png","83","motor","2","62","1","0","0","",""
"null","","932401","HierDy1bdtr6au","m470azc24a","ms1000355","iti","","null","img/motor_2.png","83","motor","","","","","","",""
"716","","933126","HierDy1bdtr6au","m470azc24a","ms1000355","motor","","75","img/motor_7.png","75","motor","7","63","1","0","0","",""
"null","","933234","HierDy1bdtr6au","m470azc24a","ms1000355","iti","","null","img/motor_7.png","75","motor","","","","","","",""
"548","","933790","HierDy1bdtr6au","m470azc24a","ms1000355","motor","","83","img/motor_2.png","83","motor","2","64","1","0","0","",""
"null","","933898","HierDy1bdtr6au","m470azc24a","ms1000355","iti","","null","img/motor_2.png","83","motor","","","","","","",""
"524","","934430","HierDy1bdtr6au","m470azc24a","ms1000355","motor","","65","img/motor_1.png","65","motor","1","65","1","0","0","",""
"null","","934544","HierDy1bdtr6au","m470azc24a","ms1000355","iti","","null","img/motor_1.png","65","motor","","","","","","",""
"589","","935142","HierDy1bdtr6au","m470azc24a","ms1000355","motor","","75","img/motor_7.png","75","motor","7","66","1","0","0","",""
"null","","935256","HierDy1bdtr6au","m470azc24a","ms1000355","iti","","null","img/motor_7.png","75","motor","","","","","","",""
"486","","935750","HierDy1bdtr6au","m470azc24a","ms1000355","motor","","83","img/motor_2.png","83","motor","2","67","1","0","0","",""
"null","","935857","HierDy1bdtr6au","m470azc24a","ms1000355","iti","","null","img/motor_2.png","83","motor","","","","","","",""
"868","","936734","HierDy1bdtr6au","m470azc24a","ms1000355","motor","","74","img/motor_6.png","74","motor","6","68","1","0","0","",""
"null","","936842","HierDy1bdtr6au","m470azc24a","ms1000355","iti","","null","img/motor_6.png","74","motor","","","","","","",""
"867","","937724","HierDy1bdtr6au","m470azc24a","ms1000355","motor","","70","img/motor_4.png","70","motor","4","69","1","0","0","",""
"null","","937833","HierDy1bdtr6au","m470azc24a","ms1000355","iti","","null","img/motor_4.png","70","motor","","","","","","",""
"621","","938461","HierDy1bdtr6au","m470azc24a","ms1000355","motor","","83","img/motor_2.png","83","motor","2","70","1","0","0","",""
"null","","938570","HierDy1bdtr6au","m470azc24a","ms1000355","iti","","null","img/motor_2.png","83","motor","","","","","","",""
"741","","939318","HierDy1bdtr6au","m470azc24a","ms1000355","motor","","68","img/motor_3.png","68","motor","3","71","1","0","0","",""
"null","","939426","HierDy1bdtr6au","m470azc24a","ms1000355","iti","","null","img/motor_3.png","68","motor","","","","","","",""
"523","","939957","HierDy1bdtr6au","m470azc24a","ms1000355","motor","","74","img/motor_6.png","74","motor","6","72","1","0","0","",""
"null","","940065","HierDy1bdtr6au","m470azc24a","ms1000355","iti","","null","img/motor_6.png","74","motor","","","","","","",""
"1229","","941302","HierDy1bdtr6au","m470azc24a","ms1000355","motor","","70","img/motor_4.png","70","motor","4","73","1","0","0","",""
"null","","941410","HierDy1bdtr6au","m470azc24a","ms1000355","iti","","null","img/motor_4.png","70","motor","","","","","","",""
"588","","942006","HierDy1bdtr6au","m470azc24a","ms1000355","motor","","83","img/motor_2.png","83","motor","2","74","1","0","0","",""
"null","","942114","HierDy1bdtr6au","m470azc24a","ms1000355","iti","","null","img/motor_2.png","83","motor","","","","","","",""
"604","","942732","HierDy1bdtr6au","m470azc24a","ms1000355","motor","","70","img/motor_4.png","70","motor","4","75","1","0","0","",""
"null","","942842","HierDy1bdtr6au","m470azc24a","ms1000355","iti","","null","img/motor_4.png","70","motor","","","","","","",""
"628","","943478","HierDy1bdtr6au","m470azc24a","ms1000355","motor","","75","img/motor_7.png","75","motor","7","76","1","0","0","",""
"null","","943593","HierDy1bdtr6au","m470azc24a","ms1000355","iti","","null","img/motor_7.png","75","motor","","","","","","",""
"581","","944188","HierDy1bdtr6au","m470azc24a","ms1000355","motor","","76","img/motor_8.png","76","motor","8","77","1","0","0","",""
"null","","944303","HierDy1bdtr6au","m470azc24a","ms1000355","iti","","null","img/motor_8.png","76","motor","","","","","","",""
"645","","944957","HierDy1bdtr6au","m470azc24a","ms1000355","motor","","83","img/motor_2.png","83","motor","2","78","1","0","0","",""
"null","","945065","HierDy1bdtr6au","m470azc24a","ms1000355","iti","","null","img/motor_2.png","83","motor","","","","","","",""
"596","","945670","HierDy1bdtr6au","m470azc24a","ms1000355","motor","","76","img/motor_8.png","76","motor","8","79","1","0","0","",""
"null","","945783","HierDy1bdtr6au","m470azc24a","ms1000355","iti","","null","img/motor_8.png","76","motor","","","","","","",""
"630","","946421","HierDy1bdtr6au","m470azc24a","ms1000355","motor","","75","img/motor_6.png","74","motor","6","80","0","1","0","",""
"417","","946846","HierDy1bdtr6au","m470azc24a","ms1000355","motorRepeat","","74","img/motor_6.png","74","motor","6","80","1","0","0","",""
"null","","946960","HierDy1bdtr6au","m470azc24a","ms1000355","iti","","null","img/motor_6.png","74","motor","","","","","","",""
"453","","947421","HierDy1bdtr6au","m470azc24a","ms1000355","motor","","74","img/motor_6.png","74","motor","6","81","1","0","0","",""
"null","","947536","HierDy1bdtr6au","m470azc24a","ms1000355","iti","","null","img/motor_6.png","74","motor","","","","","","",""
"758","","948302","HierDy1bdtr6au","m470azc24a","ms1000355","motor","","70","img/motor_4.png","70","motor","4","82","1","0","0","",""
"null","","948410","HierDy1bdtr6au","m470azc24a","ms1000355","iti","","null","img/motor_4.png","70","motor","","","","","","",""
"532","","948950","HierDy1bdtr6au","m470azc24a","ms1000355","motor","","75","img/motor_6.png","74","motor","6","83","0","1","0","",""
"647","","949606","HierDy1bdtr6au","m470azc24a","ms1000355","motorRepeat","","74","img/motor_6.png","74","motor","6","83","1","0","0","",""
"null","","949714","HierDy1bdtr6au","m470azc24a","ms1000355","iti","","null","img/motor_6.png","74","motor","","","","","","",""
"644","","950372","HierDy1bdtr6au","m470azc24a","ms1000355","motor","","72","img/motor_5.png","72","motor","5","84","1","0","0","",""
"null","","950480","HierDy1bdtr6au","m470azc24a","ms1000355","iti","","null","img/motor_5.png","72","motor","","","","","","",""
"493","","950982","HierDy1bdtr6au","m470azc24a","ms1000355","motor","","74","img/motor_6.png","74","motor","6","85","1","0","0","",""
"null","","951096","HierDy1bdtr6au","m470azc24a","ms1000355","iti","","null","img/motor_6.png","74","motor","","","","","","",""
"437","","951541","HierDy1bdtr6au","m470azc24a","ms1000355","motor","","72","img/motor_5.png","72","motor","5","86","1","0","0","",""
"null","","951656","HierDy1bdtr6au","m470azc24a","ms1000355","iti","","null","img/motor_5.png","72","motor","","","","","","",""
"534","","952198","HierDy1bdtr6au","m470azc24a","ms1000355","motor","","68","img/motor_3.png","68","motor","3","87","1","0","0","",""
"null","","952306","HierDy1bdtr6au","m470azc24a","ms1000355","iti","","null","img/motor_3.png","68","motor","","","","","","",""
"483","","952798","HierDy1bdtr6au","m470azc24a","ms1000355","motor","","76","img/motor_8.png","76","motor","8","88","1","0","0","",""
"null","","952906","HierDy1bdtr6au","m470azc24a","ms1000355","iti","","null","img/motor_8.png","76","motor","","","","","","",""
"1132","","954046","HierDy1bdtr6au","m470azc24a","ms1000355","motor","","72","img/motor_4.png","70","motor","4","89","0","1","0","",""
"39","","954100","HierDy1bdtr6au","m470azc24a","ms1000355","motorRepeat","","70","img/motor_4.png","70","motor","4","89","1","0","0","",""
"null","","954209","HierDy1bdtr6au","m470azc24a","ms1000355","iti","","null","img/motor_4.png","70","motor","","","","","","",""
"9677","","963894","HierDy1bdtr6au","m470azc24a","ms1000355","motor","","74","img/motor_6.png","74","motor","6","90","1","0","0","",""
"null","","964009","HierDy1bdtr6au","m470azc24a","ms1000355","iti","","null","img/motor_6.png","74","motor","","","","","","",""
"541","","964558","HierDy1bdtr6au","m470azc24a","ms1000355","motor","","75","img/motor_7.png","75","motor","7","91","1","0","0","",""
"null","","964673","HierDy1bdtr6au","m470azc24a","ms1000355","iti","","null","img/motor_7.png","75","motor","","","","","","",""
"540","","965222","HierDy1bdtr6au","m470azc24a","ms1000355","motor","","72","img/motor_5.png","72","motor","5","92","1","0","0","",""
"null","","965330","HierDy1bdtr6au","m470azc24a","ms1000355","iti","","null","img/motor_5.png","72","motor","","","","","","",""
"859","","966197","HierDy1bdtr6au","m470azc24a","ms1000355","motor","","68","img/motor_3.png","68","motor","3","93","1","0","0","",""
"null","","966306","HierDy1bdtr6au","m470azc24a","ms1000355","iti","","null","img/motor_3.png","68","motor","","","","","","",""
"556","","966869","HierDy1bdtr6au","m470azc24a","ms1000355","motor","","74","img/motor_6.png","74","motor","6","94","1","0","0","",""
"null","","966977","HierDy1bdtr6au","m470azc24a","ms1000355","iti","","null","img/motor_6.png","74","motor","","","","","","",""
"573","","967557","HierDy1bdtr6au","m470azc24a","ms1000355","motor","","65","img/motor_1.png","65","motor","1","95","1","0","0","",""
"null","","967666","HierDy1bdtr6au","m470azc24a","ms1000355","iti","","null","img/motor_1.png","65","motor","","","","","","",""
"611","","968285","HierDy1bdtr6au","m470azc24a","ms1000355","motor","","72","img/motor_5.png","72","motor","5","96","1","0","0","",""
"null","","968393","HierDy1bdtr6au","m470azc24a","ms1000355","iti","","null","img/motor_5.png","72","motor","","","","","","",""
"582","","968988","HierDy1bdtr6au","m470azc24a","ms1000355","motor","","65","img/motor_1.png","65","motor","1","97","1","0","0","",""
"null","","969097","HierDy1bdtr6au","m470azc24a","ms1000355","iti","","null","img/motor_1.png","65","motor","","","","","","",""
"572","","969684","HierDy1bdtr6au","m470azc24a","ms1000355","motor","","70","img/motor_4.png","70","motor","4","98","1","0","0","",""
"null","","969793","HierDy1bdtr6au","m470azc24a","ms1000355","iti","","null","img/motor_4.png","70","motor","","","","","","",""
"565","","970366","HierDy1bdtr6au","m470azc24a","ms1000355","motor","","83","img/motor_2.png","83","motor","2","99","1","0","0","",""
"null","","970474","HierDy1bdtr6au","m470azc24a","ms1000355","iti","","null","img/motor_2.png","83","motor","","","","","","",""
"557","","971038","HierDy1bdtr6au","m470azc24a","ms1000355","motor","","75","img/motor_6.png","74","motor","6","100","0","1","0","",""
"241","","971285","HierDy1bdtr6au","m470azc24a","ms1000355","motorRepeat","","74","img/motor_6.png","74","motor","6","100","1","0","0","",""
"null","","971400","HierDy1bdtr6au","m470azc24a","ms1000355","iti","","null","img/motor_6.png","74","motor","","","","","","",""
"366","","971771","HierDy1bdtr6au","m470azc24a","ms1000355","motor","","74","img/motor_6.png","74","motor","6","101","1","0","0","",""
"null","","971886","HierDy1bdtr6au","m470azc24a","ms1000355","iti","","null","img/motor_6.png","74","motor","","","","","","",""
"712","","972605","HierDy1bdtr6au","m470azc24a","ms1000355","motor","","76","img/motor_8.png","76","motor","8","102","1","0","0","",""
"null","","972719","HierDy1bdtr6au","m470azc24a","ms1000355","iti","","null","img/motor_8.png","76","motor","","","","","","",""
"854","","973581","HierDy1bdtr6au","m470azc24a","ms1000355","motor","","68","img/motor_3.png","68","motor","3","103","1","0","0","",""
"8","","973690","HierDy1bdtr6au","m470azc24a","ms1000355","iti","","83","img/motor_3.png","68","motor","","","","","","",""
"428","","974132","HierDy1bdtr6au","m470azc24a","ms1000355","motor","","76","img/motor_8.png","76","motor","8","104","1","0","0","",""
"null","","974241","HierDy1bdtr6au","m470azc24a","ms1000355","iti","","null","img/motor_8.png","76","motor","","","","","","",""
"485","","974734","HierDy1bdtr6au","m470azc24a","ms1000355","motor","","65","img/motor_2.png","83","motor","2","105","0","1","0","",""
"192","","974933","HierDy1bdtr6au","m470azc24a","ms1000355","motorRepeat","","83","img/motor_2.png","83","motor","2","105","1","0","0","",""
"null","","975041","HierDy1bdtr6au","m470azc24a","ms1000355","iti","","null","img/motor_2.png","83","motor","","","","","","",""
"644","","975693","HierDy1bdtr6au","m470azc24a","ms1000355","motor","","83","img/motor_3.png","68","motor","3","106","0","1","0","",""
"7","","975708","HierDy1bdtr6au","m470azc24a","ms1000355","motorRepeat","","68","img/motor_3.png","68","motor","3","106","1","0","0","",""
"null","","975823","HierDy1bdtr6au","m470azc24a","ms1000355","iti","","null","img/motor_3.png","68","motor","","","","","","",""
"502","","976333","HierDy1bdtr6au","m470azc24a","ms1000355","motor","","72","img/motor_5.png","72","motor","5","107","1","0","0","",""
"null","","976442","HierDy1bdtr6au","m470azc24a","ms1000355","iti","","null","img/motor_5.png","72","motor","","","","","","",""
"669","","977118","HierDy1bdtr6au","m470azc24a","ms1000355","motor","","65","img/motor_1.png","65","motor","1","108","1","0","0","",""
"null","","977225","HierDy1bdtr6au","m470azc24a","ms1000355","iti","","null","img/motor_1.png","65","motor","","","","","","",""
"573","","977804","HierDy1bdtr6au","m470azc24a","ms1000355","motor","","75","img/motor_7.png","75","motor","7","109","1","0","0","",""
"null","","977919","HierDy1bdtr6au","m470azc24a","ms1000355","iti","","null","img/motor_7.png","75","motor","","","","","","",""
"758","","978692","HierDy1bdtr6au","m470azc24a","ms1000355","motor","","70","img/motor_4.png","70","motor","4","110","1","0","0","",""
"null","","978801","HierDy1bdtr6au","m470azc24a","ms1000355","iti","","null","img/motor_4.png","70","motor","","","","","","",""
"565","","979373","HierDy1bdtr6au","m470azc24a","ms1000355","motor","","75","img/motor_7.png","75","motor","7","111","1","0","0","",""
"null","","979482","HierDy1bdtr6au","m470azc24a","ms1000355","iti","","null","img/motor_7.png","75","motor","","","","","","",""
"420","","979916","HierDy1bdtr6au","m470azc24a","ms1000355","motor","","75","img/motor_7.png","75","motor","7","112","1","0","0","",""
"null","","980025","HierDy1bdtr6au","m470azc24a","ms1000355","iti","","null","img/motor_7.png","75","motor","","","","","","",""
"525","","980557","HierDy1bdtr6au","m470azc24a","ms1000355","motor","","65","img/motor_1.png","65","motor","1","113","1","0","0","",""
"null","","980672","HierDy1bdtr6au","m470azc24a","ms1000355","iti","","null","img/motor_1.png","65","motor","","","","","","",""
"461","","981142","HierDy1bdtr6au","m470azc24a","ms1000355","motor","","70","img/motor_4.png","70","motor","4","114","1","0","0","",""
"null","","981250","HierDy1bdtr6au","m470azc24a","ms1000355","iti","","null","img/motor_4.png","70","motor","","","","","","",""
"531","","981790","HierDy1bdtr6au","m470azc24a","ms1000355","motor","","76","img/motor_8.png","76","motor","8","115","1","0","0","",""
"null","","981898","HierDy1bdtr6au","m470azc24a","ms1000355","iti","","null","img/motor_8.png","76","motor","","","","","","",""
"469","","982373","HierDy1bdtr6au","m470azc24a","ms1000355","motor","","65","img/motor_3.png","68","motor","3","116","0","1","0","",""
"431","","982813","HierDy1bdtr6au","m470azc24a","ms1000355","motorRepeat","","83","img/motor_3.png","68","motor","3","116","0","1","0","",""
"1465","","984292","HierDy1bdtr6au","m470azc24a","ms1000355","motorRepeat","","68","img/motor_3.png","68","motor","3","116","1","0","0","",""
"null","","984401","HierDy1bdtr6au","m470azc24a","ms1000355","iti","","null","img/motor_3.png","68","motor","","","","","","",""
"510","","984918","HierDy1bdtr6au","m470azc24a","ms1000355","motor","","83","img/motor_2.png","83","motor","2","117","1","0","0","",""
"null","","985027","HierDy1bdtr6au","m470azc24a","ms1000355","iti","","null","img/motor_2.png","83","motor","","","","","","",""
"443","","985478","HierDy1bdtr6au","m470azc24a","ms1000355","motor","","83","img/motor_2.png","83","motor","2","118","1","0","0","",""
"null","","985587","HierDy1bdtr6au","m470azc24a","ms1000355","iti","","null","img/motor_2.png","83","motor","","","","","","",""
"620","","986220","HierDy1bdtr6au","m470azc24a","ms1000355","motor","","70","img/motor_4.png","70","motor","4","119","1","0","0","",""
"null","","986329","HierDy1bdtr6au","m470azc24a","ms1000355","iti","","null","img/motor_4.png","70","motor","","","","","","",""
"621","","986958","HierDy1bdtr6au","m470azc24a","ms1000355","motor","","83","img/motor_3.png","68","motor","3","120","0","1","0","",""
"855","","987821","HierDy1bdtr6au","m470azc24a","ms1000355","motorRepeat","","68","img/motor_3.png","68","motor","3","120","1","0","0","",""
"null","","987935","HierDy1bdtr6au","m470azc24a","ms1000355","iti","","null","img/motor_3.png","68","motor","","","","","","",""
"541","","988493","HierDy1bdtr6au","m470azc24a","ms1000355","motor","","70","img/motor_4.png","70","motor","4","121","1","0","0","",""
"null","","988601","HierDy1bdtr6au","m470azc24a","ms1000355","iti","","null","img/motor_4.png","70","motor","","","","","","",""
"805","","989414","HierDy1bdtr6au","m470azc24a","ms1000355","motor","","65","img/motor_1.png","65","motor","1","122","1","0","0","",""
"40","","989522","HierDy1bdtr6au","m470azc24a","ms1000355","iti","","83","img/motor_1.png","65","motor","","","","","","",""
"619","","990150","HierDy1bdtr6au","m470azc24a","ms1000355","motor","","76","img/motor_8.png","76","motor","8","123","1","0","0","",""
"null","","990264","HierDy1bdtr6au","m470azc24a","ms1000355","iti","","null","img/motor_8.png","76","motor","","","","","","",""
"445","","990717","HierDy1bdtr6au","m470azc24a","ms1000355","motor","","65","img/motor_1.png","65","motor","1","124","1","0","0","",""
"null","","990831","HierDy1bdtr6au","m470azc24a","ms1000355","iti","","null","img/motor_1.png","65","motor","","","","","","",""
"686","","991532","HierDy1bdtr6au","m470azc24a","ms1000355","motor","","74","img/motor_6.png","74","motor","6","125","1","0","0","",""
"3","","991641","HierDy1bdtr6au","m470azc24a","ms1000355","iti","","75","img/motor_6.png","74","motor","","","","","","",""
"532","","992182","HierDy1bdtr6au","m470azc24a","ms1000355","motor","","68","img/motor_4.png","70","motor","4","126","0","1","0","",""
"176","","992366","HierDy1bdtr6au","m470azc24a","ms1000355","motorRepeat","","70","img/motor_4.png","70","motor","4","126","1","0","0","",""
"null","","992474","HierDy1bdtr6au","m470azc24a","ms1000355","iti","","null","img/motor_4.png","70","motor","","","","","","",""
"612","","993100","HierDy1bdtr6au","m470azc24a","ms1000355","motor","","76","img/motor_8.png","76","motor","8","127","1","0","0","",""
"null","","993215","HierDy1bdtr6au","m470azc24a","ms1000355","iti","","null","img/motor_8.png","76","motor","","","","","","",""
"574","","993804","HierDy1bdtr6au","m470azc24a","ms1000355","motor","","83","img/motor_3.png","68","motor","3","128","0","1","0","",""
"418","","994228","HierDy1bdtr6au","m470azc24a","ms1000355","motorRepeat","","83","img/motor_3.png","68","motor","3","128","0","1","0","",""
"66","","994308","HierDy1bdtr6au","m470azc24a","ms1000355","motorRepeat","","68","img/motor_3.png","68","motor","3","128","1","0","0","",""
"null","","994423","HierDy1bdtr6au","m470azc24a","ms1000355","iti","","null","img/motor_3.png","68","motor","","","","","","",""
"559","","994996","HierDy1bdtr6au","m470azc24a","ms1000355","motor","","83","img/motor_2.png","83","motor","2","129","1","0","0","",""
"null","","995105","HierDy1bdtr6au","m470azc24a","ms1000355","iti","","null","img/motor_2.png","83","motor","","","","","","",""
"556","","995668","HierDy1bdtr6au","m470azc24a","ms1000355","motor","","70","img/motor_5.png","72","motor","5","130","0","1","0","",""
"90","","995765","HierDy1bdtr6au","m470azc24a","ms1000355","motorRepeat","","72","img/motor_5.png","72","motor","5","130","1","0","0","",""
"null","","995880","HierDy1bdtr6au","m470azc24a","ms1000355","iti","","null","img/motor_5.png","72","motor","","","","","","",""
"614","","996507","HierDy1bdtr6au","m470azc24a","ms1000355","motor","","75","img/motor_7.png","75","motor","7","131","1","0","0","",""
"null","","996617","HierDy1bdtr6au","m470azc24a","ms1000355","iti","","null","img/motor_7.png","75","motor","","","","","","",""
"734","","997358","HierDy1bdtr6au","m470azc24a","ms1000355","motor","","72","img/motor_6.png","74","motor","6","132","0","1","0","",""
"320","","997686","HierDy1bdtr6au","m470azc24a","ms1000355","motorRepeat","","74","img/motor_6.png","74","motor","6","132","1","0","0","",""
"null","","997793","HierDy1bdtr6au","m470azc24a","ms1000355","iti","","null","img/motor_6.png","74","motor","","","","","","",""
"1228","","999036","HierDy1bdtr6au","m470azc24a","ms1000355","motor","","65","img/motor_1.png","65","motor","1","133","1","0","0","",""
"null","","999151","HierDy1bdtr6au","m470azc24a","ms1000355","iti","","null","img/motor_1.png","65","motor","","","","","","",""
"1207","","1000373","HierDy1bdtr6au","m470azc24a","ms1000355","motor","","74","img/motor_6.png","74","motor","6","134","1","0","0","",""
"null","","1000488","HierDy1bdtr6au","m470azc24a","ms1000355","iti","","null","img/motor_6.png","74","motor","","","","","","",""
"653","","1001150","HierDy1bdtr6au","m470azc24a","ms1000355","motor","","83","img/motor_3.png","68","motor","3","135","0","1","0","",""
"600","","1001764","HierDy1bdtr6au","m470azc24a","ms1000355","motorRepeat","","68","img/motor_3.png","68","motor","3","135","1","0","0","",""
"null","","1001873","HierDy1bdtr6au","m470azc24a","ms1000355","iti","","null","img/motor_3.png","68","motor","","","","","","",""
"501","","1002380","HierDy1bdtr6au","m470azc24a","ms1000355","motor","","68","img/motor_3.png","68","motor","3","136","1","0","0","",""
"null","","1002488","HierDy1bdtr6au","m470azc24a","ms1000355","iti","","null","img/motor_3.png","68","motor","","","","","","",""
"2413","","1004917","HierDy1bdtr6au","m470azc24a","ms1000355","motor","","72","img/motor_5.png","72","motor","5","137","1","0","0","",""
"null","","1005031","HierDy1bdtr6au","m470azc24a","ms1000355","iti","","null","img/motor_5.png","72","motor","","","","","","",""
"1030","","1006069","HierDy1bdtr6au","m470azc24a","ms1000355","motor","","68","img/motor_3.png","68","motor","3","138","1","0","0","",""
"null","","1006178","HierDy1bdtr6au","m470azc24a","ms1000355","iti","","null","img/motor_3.png","68","motor","","","","","","",""
"843","","1007030","HierDy1bdtr6au","m470azc24a","ms1000355","motor","","83","img/motor_2.png","83","motor","2","139","1","0","0","",""
"null","","1007138","HierDy1bdtr6au","m470azc24a","ms1000355","iti","","null","img/motor_2.png","83","motor","","","","","","",""
"796","","1007942","HierDy1bdtr6au","m470azc24a","ms1000355","motor","","68","img/motor_3.png","68","motor","3","140","1","0","0","",""
"null","","1008050","HierDy1bdtr6au","m470azc24a","ms1000355","iti","","null","img/motor_3.png","68","motor","","","","","","",""
"620","","1008678","HierDy1bdtr6au","m470azc24a","ms1000355","motor","","68","img/motor_3.png","68","motor","3","141","1","0","0","",""
"null","","1008792","HierDy1bdtr6au","m470azc24a","ms1000355","iti","","null","img/motor_3.png","68","motor","","","","","","",""
"630","","1009430","HierDy1bdtr6au","m470azc24a","ms1000355","motor","","70","img/motor_4.png","70","motor","4","142","1","0","0","",""
"null","","1009544","HierDy1bdtr6au","m470azc24a","ms1000355","iti","","null","img/motor_4.png","70","motor","","","","","","",""
"958","","1010517","HierDy1bdtr6au","m470azc24a","ms1000355","motor","","83","img/motor_2.png","83","motor","2","143","1","0","0","",""
"null","","1010626","HierDy1bdtr6au","m470azc24a","ms1000355","iti","","null","img/motor_2.png","83","motor","","","","","","",""
"900","","1011534","HierDy1bdtr6au","m470azc24a","ms1000355","motor","","70","img/motor_4.png","70","motor","4","144","1","0","0","",""
"null","","1011642","HierDy1bdtr6au","m470azc24a","ms1000355","iti","","null","img/motor_4.png","70","motor","","","","","","",""
"996","","1012646","HierDy1bdtr6au","m470azc24a","ms1000355","motor","","75","img/motor_7.png","75","motor","7","145","1","0","0","",""
"null","","1012754","HierDy1bdtr6au","m470azc24a","ms1000355","iti","","null","img/motor_7.png","75","motor","","","","","","",""
"907","","1013670","HierDy1bdtr6au","m470azc24a","ms1000355","motor","","83","img/motor_2.png","83","motor","2","146","1","0","0","",""
"null","","1013785","HierDy1bdtr6au","m470azc24a","ms1000355","iti","","null","img/motor_2.png","83","motor","","","","","","",""
"853","","1014646","HierDy1bdtr6au","m470azc24a","ms1000355","motor","","76","img/motor_8.png","76","motor","8","147","1","0","0","",""
"null","","1014754","HierDy1bdtr6au","m470azc24a","ms1000355","iti","","null","img/motor_8.png","76","motor","","","","","","",""
"981","","1015742","HierDy1bdtr6au","m470azc24a","ms1000355","motor","","74","img/motor_6.png","74","motor","6","148","1","0","0","",""
"null","","1015850","HierDy1bdtr6au","m470azc24a","ms1000355","iti","","null","img/motor_6.png","74","motor","","","","","","",""
"709","","1016573","HierDy1bdtr6au","m470azc24a","ms1000355","motor","","76","img/motor_8.png","76","motor","8","149","1","0","0","",""
"null","","1016682","HierDy1bdtr6au","m470azc24a","ms1000355","iti","","null","img/motor_8.png","76","motor","","","","","","",""
"708","","1017397","HierDy1bdtr6au","m470azc24a","ms1000355","motor","","75","img/motor_7.png","75","motor","7","150","1","0","0","",""
"null","","1017505","HierDy1bdtr6au","m470azc24a","ms1000355","iti","","null","img/motor_7.png","75","motor","","","","","","",""
"509","","1018022","HierDy1bdtr6au","m470azc24a","ms1000355","motor","","76","img/motor_8.png","76","motor","8","151","1","0","0","",""
"null","","1018130","HierDy1bdtr6au","m470azc24a","ms1000355","iti","","null","img/motor_8.png","76","motor","","","","","","",""
"1252","","1019390","HierDy1bdtr6au","m470azc24a","ms1000355","motor","","83","img/motor_1.png","65","motor","1","152","0","1","0","",""
"312","","1019710","HierDy1bdtr6au","m470azc24a","ms1000355","motorRepeat","","65","img/motor_1.png","65","motor","1","152","1","0","0","",""
"null","","1019819","HierDy1bdtr6au","m470azc24a","ms1000355","iti","","null","img/motor_1.png","65","motor","","","","","","",""
"2163","","1021990","HierDy1bdtr6au","m470azc24a","ms1000355","motor","","76","img/motor_8.png","76","motor","8","153","1","0","0","",""
"null","","1022104","HierDy1bdtr6au","m470azc24a","ms1000355","iti","","null","img/motor_8.png","76","motor","","","","","","",""
"822","","1022940","HierDy1bdtr6au","m470azc24a","ms1000355","motor","","83","img/motor_2.png","83","motor","2","154","1","0","0","",""
"null","","1023049","HierDy1bdtr6au","m470azc24a","ms1000355","iti","","null","img/motor_2.png","83","motor","","","","","","",""
"998","","1024054","HierDy1bdtr6au","m470azc24a","ms1000355","motor","","74","img/motor_6.png","74","motor","6","155","1","0","0","",""
"null","","1024168","HierDy1bdtr6au","m470azc24a","ms1000355","iti","","null","img/motor_6.png","74","motor","","","","","","",""
"764","","1024941","HierDy1bdtr6au","m470azc24a","ms1000355","motor","","83","img/motor_2.png","83","motor","2","156","1","0","0","",""
"null","","1025050","HierDy1bdtr6au","m470azc24a","ms1000355","iti","","null","img/motor_2.png","83","motor","","","","","","",""
"1524","","1026582","HierDy1bdtr6au","m470azc24a","ms1000355","motor","","75","img/motor_7.png","75","motor","7","157","1","0","0","",""
"null","","1026690","HierDy1bdtr6au","m470azc24a","ms1000355","iti","","null","img/motor_7.png","75","motor","","","","","","",""
"524","","1027221","HierDy1bdtr6au","m470azc24a","ms1000355","motor","","83","img/motor_2.png","83","motor","2","158","1","0","0","",""
"null","","1027336","HierDy1bdtr6au","m470azc24a","ms1000355","iti","","null","img/motor_2.png","83","motor","","","","","","",""
"702","","1028052","HierDy1bdtr6au","m470azc24a","ms1000355","motor","","68","img/motor_3.png","68","motor","3","159","1","0","0","",""
"null","","1028168","HierDy1bdtr6au","m470azc24a","ms1000355","iti","","null","img/motor_3.png","68","motor","","","","","","",""
"958","","1029134","HierDy1bdtr6au","m470azc24a","ms1000355","motor","","74","img/motor_5.png","72","motor","5","160","0","1","0","",""
"393","","1029540","HierDy1bdtr6au","m470azc24a","ms1000355","motorRepeat","","72","img/motor_5.png","72","motor","5","160","1","0","0","",""
"null","","1029655","HierDy1bdtr6au","m470azc24a","ms1000355","iti","","null","img/motor_5.png","72","motor","","","","","","",""
"750","","1030414","HierDy1bdtr6au","m470azc24a","ms1000355","motor","","83","img/motor_2.png","83","motor","2","161","1","0","0","",""
"null","","1030529","HierDy1bdtr6au","m470azc24a","ms1000355","iti","","null","img/motor_2.png","83","motor","","","","","","",""
"644","","1031182","HierDy1bdtr6au","m470azc24a","ms1000355","motor","","68","img/motor_3.png","68","motor","3","162","1","0","0","",""
"null","","1031297","HierDy1bdtr6au","m470azc24a","ms1000355","iti","","null","img/motor_3.png","68","motor","","","","","","",""
"868","","1032174","HierDy1bdtr6au","m470azc24a","ms1000355","motor","","74","img/motor_6.png","74","motor","6","163","1","0","0","",""
"null","","1032281","HierDy1bdtr6au","m470azc24a","ms1000355","iti","","null","img/motor_6.png","74","motor","","","","","","",""
"532","","1032822","HierDy1bdtr6au","m470azc24a","ms1000355","motor","","74","img/motor_5.png","72","motor","5","164","0","1","0","",""
"1304","","1034134","HierDy1bdtr6au","m470azc24a","ms1000355","motorRepeat","","72","img/motor_5.png","72","motor","5","164","1","0","0","",""
"null","","1034248","HierDy1bdtr6au","m470azc24a","ms1000355","iti","","null","img/motor_5.png","72","motor","","","","","","",""
"814","","1035070","HierDy1bdtr6au","m470azc24a","ms1000355","motor","","65","img/motor_1.png","65","motor","1","165","1","0","0","",""
"null","","1035185","HierDy1bdtr6au","m470azc24a","ms1000355","iti","","null","img/motor_1.png","65","motor","","","","","","",""
"4038","","1039230","HierDy1bdtr6au","m470azc24a","ms1000355","motor","","70","img/motor_3.png","68","motor","3","166","0","1","0","",""
"424","","1039662","HierDy1bdtr6au","m470azc24a","ms1000355","motorRepeat","","68","img/motor_3.png","68","motor","3","166","1","0","0","",""
"null","","1039776","HierDy1bdtr6au","m470azc24a","ms1000355","iti","","null","img/motor_3.png","68","motor","","","","","","",""
"1621","","1041413","HierDy1bdtr6au","m470azc24a","ms1000355","motor","","83","img/motor_2.png","83","motor","2","167","1","0","0","",""
"null","","1041527","HierDy1bdtr6au","m470azc24a","ms1000355","iti","","null","img/motor_2.png","83","motor","","","","","","",""
"774","","1042316","HierDy1bdtr6au","m470azc24a","ms1000355","motor","","65","img/motor_1.png","65","motor","1","168","1","0","0","",""
"null","","1042432","HierDy1bdtr6au","m470azc24a","ms1000355","iti","","null","img/motor_1.png","65","motor","","","","","","",""
"917","","1043364","HierDy1bdtr6au","m470azc24a","ms1000355","motor","","70","img/motor_4.png","70","motor","4","169","1","0","0","",""
"null","","1043480","HierDy1bdtr6au","m470azc24a","ms1000355","iti","","null","img/motor_4.png","70","motor","","","","","","",""
"2742","","1046229","HierDy1bdtr6au","m470azc24a","ms1000355","motor","","72","img/motor_5.png","72","motor","5","170","1","0","0","",""
"null","","1046344","HierDy1bdtr6au","m470azc24a","ms1000355","iti","","null","img/motor_5.png","72","motor","","","","","","",""
"638","","1046997","HierDy1bdtr6au","m470azc24a","ms1000355","motor","","74","img/motor_6.png","74","motor","6","171","1","0","0","",""
"null","","1047112","HierDy1bdtr6au","m470azc24a","ms1000355","iti","","null","img/motor_6.png","74","motor","","","","","","",""
"797","","1047918","HierDy1bdtr6au","m470azc24a","ms1000355","motor","","76","img/motor_8.png","76","motor","8","172","1","0","0","",""
"null","","1048026","HierDy1bdtr6au","m470azc24a","ms1000355","iti","","null","img/motor_8.png","76","motor","","","","","","",""
"972","","1049006","HierDy1bdtr6au","m470azc24a","ms1000355","motor","","83","img/motor_2.png","83","motor","2","173","1","0","0","",""
"null","","1049121","HierDy1bdtr6au","m470azc24a","ms1000355","iti","","null","img/motor_2.png","83","motor","","","","","","",""
"844","","1049973","HierDy1bdtr6au","m470azc24a","ms1000355","motor","","74","img/motor_6.png","74","motor","6","174","1","0","0","",""
"null","","1050088","HierDy1bdtr6au","m470azc24a","ms1000355","iti","","null","img/motor_6.png","74","motor","","","","","","",""
"765","","1050863","HierDy1bdtr6au","m470azc24a","ms1000355","motor","","75","img/motor_7.png","75","motor","7","175","1","0","0","",""
"null","","1050977","HierDy1bdtr6au","m470azc24a","ms1000355","iti","","null","img/motor_7.png","75","motor","","","","","","",""
"988","","1051981","HierDy1bdtr6au","m470azc24a","ms1000355","motor","","70","img/motor_4.png","70","motor","4","176","1","0","0","",""
"null","","1052090","HierDy1bdtr6au","m470azc24a","ms1000355","iti","","null","img/motor_4.png","70","motor","","","","","","",""
"1702","","1053798","HierDy1bdtr6au","m470azc24a","ms1000355","motor","","74","img/motor_6.png","74","motor","6","177","1","0","0","",""
"null","","1053913","HierDy1bdtr6au","m470azc24a","ms1000355","iti","","null","img/motor_6.png","74","motor","","","","","","",""
"797","","1054719","HierDy1bdtr6au","m470azc24a","ms1000355","motor","","72","img/motor_5.png","72","motor","5","178","1","0","0","",""
"null","","1054833","HierDy1bdtr6au","m470azc24a","ms1000355","iti","","null","img/motor_5.png","72","motor","","","","","","",""
"1012","","1055854","HierDy1bdtr6au","m470azc24a","ms1000355","motor","","70","img/motor_4.png","70","motor","4","179","1","0","0","",""
"null","","1055963","HierDy1bdtr6au","m470azc24a","ms1000355","iti","","null","img/motor_4.png","70","motor","","","","","","",""
"867","","1056839","HierDy1bdtr6au","m470azc24a","ms1000355","motor","","75","img/motor_7.png","75","motor","7","180","1","0","0","",""
"null","","1056952","HierDy1bdtr6au","m470azc24a","ms1000355","iti","","null","img/motor_7.png","75","motor","","","","","","",""
"1325","","1058287","HierDy1bdtr6au","m470azc24a","ms1000355","motor","","74","img/motor_6.png","74","motor","6","181","1","0","0","",""
"null","","1058394","HierDy1bdtr6au","m470azc24a","ms1000355","iti","","null","img/motor_6.png","74","motor","","","","","","",""
"1259","","1059662","HierDy1bdtr6au","m470azc24a","ms1000355","motor","","65","img/motor_1.png","65","motor","1","182","1","0","0","",""
"null","","1059770","HierDy1bdtr6au","m470azc24a","ms1000355","iti","","null","img/motor_1.png","65","motor","","","","","","",""
"3203","","1062982","HierDy1bdtr6au","m470azc24a","ms1000355","motor","","68","img/motor_3.png","68","motor","3","183","1","0","0","",""
"null","","1063096","HierDy1bdtr6au","m470azc24a","ms1000355","iti","","null","img/motor_3.png","68","motor","","","","","","",""
"574","","1063678","HierDy1bdtr6au","m470azc24a","ms1000355","motor","","68","img/motor_2.png","83","motor","2","184","0","1","0","",""
"616","","1064301","HierDy1bdtr6au","m470azc24a","ms1000355","motorRepeat","","83","img/motor_2.png","83","motor","2","184","1","0","0","",""
"null","","1064409","HierDy1bdtr6au","m470azc24a","ms1000355","iti","","null","img/motor_2.png","83","motor","","","","","","",""
"437","","1064854","HierDy1bdtr6au","m470azc24a","ms1000355","motor","","83","img/motor_2.png","83","motor","2","185","1","0","0","",""
"null","","1064962","HierDy1bdtr6au","m470azc24a","ms1000355","iti","","null","img/motor_2.png","83","motor","","","","","","",""
"1460","","1066430","HierDy1bdtr6au","m470azc24a","ms1000355","motor","","72","img/motor_5.png","72","motor","5","186","1","0","0","",""
"null","","1066538","HierDy1bdtr6au","m470azc24a","ms1000355","iti","","null","img/motor_5.png","72","motor","","","","","","",""
"1452","","1067999","HierDy1bdtr6au","m470azc24a","ms1000355","motor","","76","img/motor_8.png","76","motor","8","187","1","0","0","",""
"null","","1068106","HierDy1bdtr6au","m470azc24a","ms1000355","iti","","null","img/motor_8.png","76","motor","","","","","","",""
"2299","","1070415","HierDy1bdtr6au","m470azc24a","ms1000355","motor","","68","img/motor_3.png","68","motor","3","188","1","0","0","",""
"null","","1070530","HierDy1bdtr6au","m470azc24a","ms1000355","iti","","null","img/motor_3.png","68","motor","","","","","","",""
"467","","1071006","HierDy1bdtr6au","m470azc24a","ms1000355","motor","","70","img/motor_4.png","70","motor","4","189","1","0","0","",""
"null","","1071114","HierDy1bdtr6au","m470azc24a","ms1000355","iti","","null","img/motor_4.png","70","motor","","","","","","",""
"396","","1071518","HierDy1bdtr6au","m470azc24a","ms1000355","motor","","70","img/motor_4.png","70","motor","4","190","1","0","0","",""
"null","","1071627","HierDy1bdtr6au","m470azc24a","ms1000355","iti","","null","img/motor_4.png","70","motor","","","","","","",""
"627","","1072269","HierDy1bdtr6au","m470azc24a","ms1000355","motor","","76","img/motor_8.png","76","motor","8","191","1","0","0","",""
"null","","1072378","HierDy1bdtr6au","m470azc24a","ms1000355","iti","","null","img/motor_8.png","76","motor","","","","","","",""
"540","","1072926","HierDy1bdtr6au","m470azc24a","ms1000355","motor","","72","img/motor_6.png","74","motor","6","192","0","1","0","",""
"304","","1073245","HierDy1bdtr6au","m470azc24a","ms1000355","motorRepeat","","74","img/motor_6.png","74","motor","6","192","1","0","0","",""
"null","","1073360","HierDy1bdtr6au","m470azc24a","ms1000355","iti","","null","img/motor_6.png","74","motor","","","","","","",""
"469","","1073837","HierDy1bdtr6au","m470azc24a","ms1000355","motor","","72","img/motor_5.png","72","motor","5","193","1","0","0","",""
"null","","1073952","HierDy1bdtr6au","m470azc24a","ms1000355","iti","","null","img/motor_5.png","72","motor","","","","","","",""
"397","","1074358","HierDy1bdtr6au","m470azc24a","ms1000355","motor","","74","img/motor_6.png","74","motor","6","194","1","0","0","",""
"null","","1074473","HierDy1bdtr6au","m470azc24a","ms1000355","iti","","null","img/motor_6.png","74","motor","","","","","","",""
"429","","1074911","HierDy1bdtr6au","m470azc24a","ms1000355","motor","","76","img/motor_8.png","76","motor","8","195","1","0","0","",""
"null","","1075026","HierDy1bdtr6au","m470azc24a","ms1000355","iti","","null","img/motor_8.png","76","motor","","","","","","",""
"557","","1075597","HierDy1bdtr6au","m470azc24a","ms1000355","motor","","70","img/motor_4.png","70","motor","4","196","1","0","0","",""
"null","","1075705","HierDy1bdtr6au","m470azc24a","ms1000355","iti","","null","img/motor_4.png","70","motor","","","","","","",""
"621","","1076334","HierDy1bdtr6au","m470azc24a","ms1000355","motor","","68","img/motor_3.png","68","motor","3","197","1","0","0","",""
"null","","1076449","HierDy1bdtr6au","m470azc24a","ms1000355","iti","","null","img/motor_3.png","68","motor","","","","","","",""
"732","","1077190","HierDy1bdtr6au","m470azc24a","ms1000355","motor","","72","img/motor_5.png","72","motor","5","198","1","0","0","",""
"null","","1077305","HierDy1bdtr6au","m470azc24a","ms1000355","iti","","null","img/motor_5.png","72","motor","","","","","","",""
"540","","1077854","HierDy1bdtr6au","m470azc24a","ms1000355","motor","","68","img/motor_2.png","83","motor","2","199","0","1","0","",""
"328","","1078190","HierDy1bdtr6au","m470azc24a","ms1000355","motorRepeat","","83","img/motor_2.png","83","motor","2","199","1","0","0","",""
"null","","1078305","HierDy1bdtr6au","m470azc24a","ms1000355","iti","","null","img/motor_2.png","83","motor","","","","","","",""
"645","","1078958","HierDy1bdtr6au","m470azc24a","ms1000355","motor","","75","img/motor_7.png","75","motor","7","200","1","0","0","",""
"31","","1079073","HierDy1bdtr6au","m470azc24a","ms1000355","iti","","76","img/motor_7.png","75","motor","","","","","","",""
"565","","1079646","HierDy1bdtr6au","m470azc24a","ms1000355","motor","","65","img/motor_1.png","65","motor","1","201","1","0","0","",""
"null","","1079755","HierDy1bdtr6au","m470azc24a","ms1000355","iti","","null","img/motor_1.png","65","motor","","","","","","",""
"915","","1080685","HierDy1bdtr6au","m470azc24a","ms1000355","motor","","75","img/motor_7.png","75","motor","7","202","1","0","0","",""
"null","","1080794","HierDy1bdtr6au","m470azc24a","ms1000355","iti","","null","img/motor_7.png","75","motor","","","","","","",""
"517","","1081318","HierDy1bdtr6au","m470azc24a","ms1000355","motor","","76","img/motor_8.png","76","motor","8","203","1","0","0","",""
"null","","1081427","HierDy1bdtr6au","m470azc24a","ms1000355","iti","","null","img/motor_8.png","76","motor","","","","","","",""
"908","","1082342","HierDy1bdtr6au","m470azc24a","ms1000355","motor","","70","img/motor_4.png","70","motor","4","204","1","0","0","",""
"null","","1082451","HierDy1bdtr6au","m470azc24a","ms1000355","iti","","null","img/motor_4.png","70","motor","","","","","","",""
"940","","1083398","HierDy1bdtr6au","m470azc24a","ms1000355","motor","","75","img/motor_8.png","76","motor","8","205","0","1","0","",""
"0","","1083403","HierDy1bdtr6au","m470azc24a","ms1000355","motorRepeat","","76","img/motor_8.png","76","motor","8","205","1","0","0","",""
"null","","1083510","HierDy1bdtr6au","m470azc24a","ms1000355","iti","","null","img/motor_8.png","76","motor","","","","","","",""
"128","","1083646","HierDy1bdtr6au","m470azc24a","ms1000355","motor","","76","img/motor_7.png","75","motor","7","206","0","1","0","",""
"544","","1084204","HierDy1bdtr6au","m470azc24a","ms1000355","motorRepeat","","74","img/motor_7.png","75","motor","7","206","0","1","0","",""
"17","","1084237","HierDy1bdtr6au","m470azc24a","ms1000355","motorRepeat","","75","img/motor_7.png","75","motor","7","206","1","0","0","",""
"null","","1084346","HierDy1bdtr6au","m470azc24a","ms1000355","iti","","null","img/motor_7.png","75","motor","","","","","","",""
"596","","1084950","HierDy1bdtr6au","m470azc24a","ms1000355","motor","","70","img/motor_4.png","70","motor","4","207","1","0","0","",""
"null","","1085059","HierDy1bdtr6au","m470azc24a","ms1000355","iti","","null","img/motor_4.png","70","motor","","","","","","",""
"547","","1085615","HierDy1bdtr6au","m470azc24a","ms1000355","motor","","72","img/motor_5.png","72","motor","5","208","1","0","0","",""
"null","","1085722","HierDy1bdtr6au","m470azc24a","ms1000355","iti","","null","img/motor_5.png","72","motor","","","","","","",""
"460","","1086197","HierDy1bdtr6au","m470azc24a","ms1000355","motor","","70","img/motor_4.png","70","motor","4","209","1","0","0","",""
"null","","1086312","HierDy1bdtr6au","m470azc24a","ms1000355","iti","","null","img/motor_4.png","70","motor","","","","","","",""
"509","","1086830","HierDy1bdtr6au","m470azc24a","ms1000355","motor","","75","img/motor_7.png","75","motor","7","210","1","0","0","",""
"null","","1086938","HierDy1bdtr6au","m470azc24a","ms1000355","iti","","null","img/motor_7.png","75","motor","","","","","","",""
"531","","1087477","HierDy1bdtr6au","m470azc24a","ms1000355","motor","","83","img/motor_3.png","68","motor","3","211","0","1","0","",""
"489","","1087974","HierDy1bdtr6au","m470azc24a","ms1000355","motorRepeat","","68","img/motor_3.png","68","motor","3","211","1","0","0","",""
"null","","1088082","HierDy1bdtr6au","m470azc24a","ms1000355","iti","","null","img/motor_3.png","68","motor","","","","","","",""
"532","","1088622","HierDy1bdtr6au","m470azc24a","ms1000355","motor","","83","img/motor_2.png","83","motor","2","212","1","0","0","",""
"null","","1088731","HierDy1bdtr6au","m470azc24a","ms1000355","iti","","null","img/motor_2.png","83","motor","","","","","","",""
"627","","1089367","HierDy1bdtr6au","m470azc24a","ms1000355","motor","","76","img/motor_8.png","76","motor","8","213","1","0","0","",""
"null","","1089475","HierDy1bdtr6au","m470azc24a","ms1000355","iti","","null","img/motor_8.png","76","motor","","","","","","",""
"419","","1089902","HierDy1bdtr6au","m470azc24a","ms1000355","motor","","76","img/motor_8.png","76","motor","8","214","1","0","0","",""
"null","","1090011","HierDy1bdtr6au","m470azc24a","ms1000355","iti","","null","img/motor_8.png","76","motor","","","","","","",""
"659","","1090678","HierDy1bdtr6au","m470azc24a","ms1000355","motor","","74","img/motor_6.png","74","motor","6","215","1","0","0","",""
"null","","1090793","HierDy1bdtr6au","m470azc24a","ms1000355","iti","","null","img/motor_6.png","74","motor","","","","","","",""
"588","","1091397","HierDy1bdtr6au","m470azc24a","ms1000355","motor","","70","img/motor_4.png","70","motor","4","216","1","0","0","",""
"null","","1091512","HierDy1bdtr6au","m470azc24a","ms1000355","iti","","null","img/motor_4.png","70","motor","","","","","","",""
"390","","1091911","HierDy1bdtr6au","m470azc24a","ms1000355","motor","","70","img/motor_4.png","70","motor","4","217","1","0","0","",""
"null","","1092019","HierDy1bdtr6au","m470azc24a","ms1000355","iti","","null","img/motor_4.png","70","motor","","","","","","",""
"476","","1092509","HierDy1bdtr6au","m470azc24a","ms1000355","motor","","76","img/motor_8.png","76","motor","8","218","1","0","0","",""
"null","","1092618","HierDy1bdtr6au","m470azc24a","ms1000355","iti","","null","img/motor_8.png","76","motor","","","","","","",""
"427","","1093054","HierDy1bdtr6au","m470azc24a","ms1000355","motor","","76","img/motor_8.png","76","motor","8","219","1","0","0","",""
"null","","1093168","HierDy1bdtr6au","m470azc24a","ms1000355","iti","","null","img/motor_8.png","76","motor","","","","","","",""
"589","","1093767","HierDy1bdtr6au","m470azc24a","ms1000355","motor","","70","img/motor_5.png","72","motor","5","220","0","1","0","",""
"112","","1093893","HierDy1bdtr6au","m470azc24a","ms1000355","motorRepeat","","72","img/motor_5.png","72","motor","5","220","1","0","0","",""
"null","","1094009","HierDy1bdtr6au","m470azc24a","ms1000355","iti","","null","img/motor_5.png","72","motor","","","","","","",""
"157","","1094174","HierDy1bdtr6au","m470azc24a","ms1000355","motor","","72","img/motor_5.png","72","motor","5","221","1","0","0","",""
"null","","1094282","HierDy1bdtr6au","m470azc24a","ms1000355","iti","","null","img/motor_5.png","72","motor","","","","","","",""
"395","","1094686","HierDy1bdtr6au","m470azc24a","ms1000355","motor","","70","img/motor_2.png","83","motor","2","222","0","1","0","",""
"400","","1095101","HierDy1bdtr6au","m470azc24a","ms1000355","motorRepeat","","68","img/motor_2.png","83","motor","2","222","0","1","0","",""
"385","","1095500","HierDy1bdtr6au","m470azc24a","ms1000355","motorRepeat","","83","img/motor_2.png","83","motor","2","222","1","0","0","",""
"null","","1095609","HierDy1bdtr6au","m470azc24a","ms1000355","iti","","null","img/motor_2.png","83","motor","","","","","","",""
"468","","1096086","HierDy1bdtr6au","m470azc24a","ms1000355","motor","","83","img/motor_2.png","83","motor","2","223","1","0","0","",""
"null","","1096201","HierDy1bdtr6au","m470azc24a","ms1000355","iti","","null","img/motor_2.png","83","motor","","","","","","",""
"573","","1096782","HierDy1bdtr6au","m470azc24a","ms1000355","motor","","70","img/motor_4.png","70","motor","4","224","1","0","0","",""
"null","","1096890","HierDy1bdtr6au","m470azc24a","ms1000355","iti","","null","img/motor_4.png","70","motor","","","","","","",""
"427","","1097326","HierDy1bdtr6au","m470azc24a","ms1000355","motor","","72","img/motor_5.png","72","motor","5","225","1","0","0","",""
"null","","1097440","HierDy1bdtr6au","m470azc24a","ms1000355","iti","","null","img/motor_5.png","72","motor","","","","","","",""
"509","","1097958","HierDy1bdtr6au","m470azc24a","ms1000355","motor","","70","img/motor_4.png","70","motor","4","226","1","0","0","",""
"null","","1098073","HierDy1bdtr6au","m470azc24a","ms1000355","iti","","null","img/motor_4.png","70","motor","","","","","","",""
"548","","1098631","HierDy1bdtr6au","m470azc24a","ms1000355","motor","","68","img/motor_3.png","68","motor","3","227","1","0","0","",""
"1","","1098739","HierDy1bdtr6au","m470azc24a","ms1000355","iti","","83","img/motor_3.png","68","motor","","","","","","",""
"475","","1099221","HierDy1bdtr6au","m470azc24a","ms1000355","motor","","76","img/motor_8.png","76","motor","8","228","1","0","0","",""
"null","","1099329","HierDy1bdtr6au","m470azc24a","ms1000355","iti","","null","img/motor_8.png","76","motor","","","","","","",""
"613","","1099950","HierDy1bdtr6au","m470azc24a","ms1000355","motor","","72","img/motor_5.png","72","motor","5","229","1","0","0","",""
"null","","1100058","HierDy1bdtr6au","m470azc24a","ms1000355","iti","","null","img/motor_5.png","72","motor","","","","","","",""
"612","","1100679","HierDy1bdtr6au","m470azc24a","ms1000355","motor","","70","img/motor_4.png","70","motor","4","230","1","0","0","",""
"null","","1100793","HierDy1bdtr6au","m470azc24a","ms1000355","iti","","null","img/motor_4.png","70","motor","","","","","","",""
"588","","1101390","HierDy1bdtr6au","m470azc24a","ms1000355","motor","","75","img/motor_7.png","75","motor","7","231","1","0","0","",""
"null","","1101505","HierDy1bdtr6au","m470azc24a","ms1000355","iti","","null","img/motor_7.png","75","motor","","","","","","",""
"613","","1102126","HierDy1bdtr6au","m470azc24a","ms1000355","motor","","83","img/motor_2.png","83","motor","2","232","1","0","0","",""
"null","","1102241","HierDy1bdtr6au","m470azc24a","ms1000355","iti","","null","img/motor_2.png","83","motor","","","","","","",""
"501","","1102757","HierDy1bdtr6au","m470azc24a","ms1000355","motor","","75","img/motor_7.png","75","motor","7","233","1","0","0","",""
"null","","1102866","HierDy1bdtr6au","m470azc24a","ms1000355","iti","","null","img/motor_7.png","75","motor","","","","","","",""
"501","","1103380","HierDy1bdtr6au","m470azc24a","ms1000355","motor","","70","img/motor_4.png","70","motor","4","234","1","0","0","",""
"null","","1103496","HierDy1bdtr6au","m470azc24a","ms1000355","iti","","null","img/motor_4.png","70","motor","","","","","","",""
"421","","1103933","HierDy1bdtr6au","m470azc24a","ms1000355","motor","","76","img/motor_8.png","76","motor","8","235","1","0","0","",""
"null","","1104041","HierDy1bdtr6au","m470azc24a","ms1000355","iti","","null","img/motor_8.png","76","motor","","","","","","",""
"525","","1104574","HierDy1bdtr6au","m470azc24a","ms1000355","motor","","83","img/motor_3.png","68","motor","3","236","0","1","0","",""
"576","","1105158","HierDy1bdtr6au","m470azc24a","ms1000355","motorRepeat","","83","img/motor_3.png","68","motor","3","236","0","1","0","",""
"393","","1105558","HierDy1bdtr6au","m470azc24a","ms1000355","motorRepeat","","68","img/motor_3.png","68","motor","3","236","1","0","0","",""
"null","","1105672","HierDy1bdtr6au","m470azc24a","ms1000355","iti","","null","img/motor_3.png","68","motor","","","","","","",""
"684","","1106367","HierDy1bdtr6au","m470azc24a","ms1000355","motor","","74","img/motor_6.png","74","motor","6","237","1","0","0","",""
"null","","1106475","HierDy1bdtr6au","m470azc24a","ms1000355","iti","","null","img/motor_6.png","74","motor","","","","","","",""
"459","","1106949","HierDy1bdtr6au","m470azc24a","ms1000355","motor","","74","img/motor_6.png","74","motor","6","238","1","0","0","",""
"null","","1107065","HierDy1bdtr6au","m470azc24a","ms1000355","iti","","null","img/motor_6.png","74","motor","","","","","","",""
"758","","1107830","HierDy1bdtr6au","m470azc24a","ms1000355","motor","","75","img/motor_7.png","75","motor","7","239","1","0","0","",""
"null","","1107945","HierDy1bdtr6au","m470azc24a","ms1000355","iti","","null","img/motor_7.png","75","motor","","","","","","",""
"565","","1108518","HierDy1bdtr6au","m470azc24a","ms1000355","motor","","74","img/motor_6.png","74","motor","6","240","1","0","0","",""
"null","","1108627","HierDy1bdtr6au","m470azc24a","ms1000355","iti","","null","img/motor_6.png","74","motor","","","","","","",""
"715","","1109351","HierDy1bdtr6au","m470azc24a","ms1000355","motor","","68","img/motor_3.png","68","motor","3","241","1","0","0","",""
"null","","1109458","HierDy1bdtr6au","m470azc24a","ms1000355","iti","","null","img/motor_3.png","68","motor","","","","","","",""
"477","","1109942","HierDy1bdtr6au","m470azc24a","ms1000355","motor","","75","img/motor_7.png","75","motor","7","242","1","0","0","",""
"null","","1110050","HierDy1bdtr6au","m470azc24a","ms1000355","iti","","null","img/motor_7.png","75","motor","","","","","","",""
"595","","1110661","HierDy1bdtr6au","m470azc24a","ms1000355","motor","","70","img/motor_3.png","68","motor","3","243","0","1","0","",""
"168","","1110845","HierDy1bdtr6au","m470azc24a","ms1000355","motorRepeat","","68","img/motor_3.png","68","motor","3","243","1","0","0","",""
"null","","1110954","HierDy1bdtr6au","m470azc24a","ms1000355","iti","","null","img/motor_3.png","68","motor","","","","","","",""
"621","","1111582","HierDy1bdtr6au","m470azc24a","ms1000355","motor","","75","img/motor_7.png","75","motor","7","244","1","0","0","",""
"null","","1111696","HierDy1bdtr6au","m470azc24a","ms1000355","iti","","null","img/motor_7.png","75","motor","","","","","","",""
"580","","1112293","HierDy1bdtr6au","m470azc24a","ms1000355","motor","","70","img/motor_4.png","70","motor","4","245","1","0","0","",""
"null","","1112408","HierDy1bdtr6au","m470azc24a","ms1000355","iti","","null","img/motor_4.png","70","motor","","","","","","",""
"541","","1112958","HierDy1bdtr6au","m470azc24a","ms1000355","motor","","72","img/motor_5.png","72","motor","5","246","1","0","0","",""
"null","","1113067","HierDy1bdtr6au","m470azc24a","ms1000355","iti","","null","img/motor_5.png","72","motor","","","","","","",""
"363","","1113439","HierDy1bdtr6au","m470azc24a","ms1000355","motor","","70","img/motor_4.png","70","motor","4","247","1","0","0","",""
"null","","1113553","HierDy1bdtr6au","m470azc24a","ms1000355","iti","","null","img/motor_4.png","70","motor","","","","","","",""
"548","","1114117","HierDy1bdtr6au","m470azc24a","ms1000355","motor","","74","img/motor_6.png","74","motor","6","248","1","0","0","",""
"null","","1114233","HierDy1bdtr6au","m470azc24a","ms1000355","iti","","null","img/motor_6.png","74","motor","","","","","","",""
"789","","1115030","HierDy1bdtr6au","m470azc24a","ms1000355","motor","","75","img/motor_7.png","75","motor","7","249","1","0","0","",""
"null","","1115138","HierDy1bdtr6au","m470azc24a","ms1000355","iti","","null","img/motor_7.png","75","motor","","","","","","",""
"662","","1115805","HierDy1bdtr6au","m470azc24a","ms1000355","motor","","68","img/motor_3.png","68","motor","3","250","1","0","0","",""
"null","","1115913","HierDy1bdtr6au","m470azc24a","ms1000355","iti","","null","img/motor_3.png","68","motor","","","","","","",""
"685","","1116606","HierDy1bdtr6au","m470azc24a","ms1000355","motor","","70","img/motor_1.png","65","motor","1","251","0","1","0","",""
"487","","1117102","HierDy1bdtr6au","m470azc24a","ms1000355","motorRepeat","","70","img/motor_1.png","65","motor","1","251","0","1","0","",""
"351","","1117469","HierDy1bdtr6au","m470azc24a","ms1000355","motorRepeat","","65","img/motor_1.png","65","motor","1","251","1","0","0","",""
"1","","1117579","HierDy1bdtr6au","m470azc24a","ms1000355","iti","","83","img/motor_1.png","65","motor","","","","","","",""
"797","","1118389","HierDy1bdtr6au","m470azc24a","ms1000355","motor","","70","img/motor_4.png","70","motor","4","252","1","0","0","",""
"null","","1118498","HierDy1bdtr6au","m470azc24a","ms1000355","iti","","null","img/motor_4.png","70","motor","","","","","","",""
"877","","1119389","HierDy1bdtr6au","m470azc24a","ms1000355","motor","","83","img/motor_2.png","83","motor","2","253","1","0","0","",""
"null","","1119498","HierDy1bdtr6au","m470azc24a","ms1000355","iti","","null","img/motor_2.png","83","motor","","","","","","",""
"811","","1120319","HierDy1bdtr6au","m470azc24a","ms1000355","motor","","72","img/motor_4.png","70","motor","4","254","0","1","0","",""
"287","","1120614","HierDy1bdtr6au","m470azc24a","ms1000355","motorRepeat","","70","img/motor_4.png","70","motor","4","254","1","0","0","",""
"null","","1120723","HierDy1bdtr6au","m470azc24a","ms1000355","iti","","null","img/motor_4.png","70","motor","","","","","","",""
"821","","1121551","HierDy1bdtr6au","m470azc24a","ms1000355","motor","","68","img/motor_3.png","68","motor","3","255","1","0","0","",""
"1","","1121658","HierDy1bdtr6au","m470azc24a","ms1000355","iti","","83","img/motor_3.png","68","motor","","","","","","",""
"611","","1122278","HierDy1bdtr6au","m470azc24a","ms1000355","motor","","70","img/motor_4.png","70","motor","4","256","1","0","0","",""
"null","","1122387","HierDy1bdtr6au","m470azc24a","ms1000355","iti","","null","img/motor_4.png","70","motor","","","","","","",""
"732","","1123126","HierDy1bdtr6au","m470azc24a","ms1000355","motor","","74","img/motor_6.png","74","motor","6","257","1","0","0","",""
"null","","1123234","HierDy1bdtr6au","m470azc24a","ms1000355","iti","","null","img/motor_6.png","74","motor","","","","","","",""
"1003","","1124253","HierDy1bdtr6au","m470azc24a","ms1000355","motor","","70","img/motor_3.png","68","motor","3","258","0","1","0","",""
"64","","1124333","HierDy1bdtr6au","m470azc24a","ms1000355","motorRepeat","","68","img/motor_3.png","68","motor","3","258","1","0","0","",""
"null","","1124442","HierDy1bdtr6au","m470azc24a","ms1000355","iti","","null","img/motor_3.png","68","motor","","","","","","",""
"659","","1125110","HierDy1bdtr6au","m470azc24a","ms1000355","motor","","76","img/motor_8.png","76","motor","8","259","1","0","0","",""
"null","","1125218","HierDy1bdtr6au","m470azc24a","ms1000355","iti","","null","img/motor_8.png","76","motor","","","","","","",""
"1412","","1126638","HierDy1bdtr6au","m470azc24a","ms1000355","motor","","74","img/motor_7.png","75","motor","7","260","0","1","0","",""
"200","","1126853","HierDy1bdtr6au","m470azc24a","ms1000355","motorRepeat","","75","img/motor_7.png","75","motor","7","260","1","0","0","",""
"null","","1126963","HierDy1bdtr6au","m470azc24a","ms1000355","iti","","null","img/motor_7.png","75","motor","","","","","","",""
"500","","1127471","HierDy1bdtr6au","m470azc24a","ms1000355","motor","","70","img/motor_5.png","72","motor","5","261","0","1","0","",""
"472","","1127951","HierDy1bdtr6au","m470azc24a","ms1000355","motorRepeat","","72","img/motor_5.png","72","motor","5","261","1","0","0","",""
"null","","1128059","HierDy1bdtr6au","m470azc24a","ms1000355","iti","","null","img/motor_5.png","72","motor","","","","","","",""
"395","","1128469","HierDy1bdtr6au","m470azc24a","ms1000355","motor","","72","img/motor_5.png","72","motor","5","262","1","0","0","",""
"null","","1128579","HierDy1bdtr6au","m470azc24a","ms1000355","iti","","null","img/motor_5.png","72","motor","","","","","","",""
"740","","1129327","HierDy1bdtr6au","m470azc24a","ms1000355","motor","","65","img/motor_1.png","65","motor","1","263","1","0","0","",""
"null","","1129435","HierDy1bdtr6au","m470azc24a","ms1000355","iti","","null","img/motor_1.png","65","motor","","","","","","",""
"580","","1130022","HierDy1bdtr6au","m470azc24a","ms1000355","motor","","75","img/motor_7.png","75","motor","7","264","1","0","0","",""
"null","","1130130","HierDy1bdtr6au","m470azc24a","ms1000355","iti","","null","img/motor_7.png","75","motor","","","","","","",""
"548","","1130686","HierDy1bdtr6au","m470azc24a","ms1000355","motor","","76","img/motor_8.png","76","motor","8","265","1","0","0","",""
"null","","1130801","HierDy1bdtr6au","m470azc24a","ms1000355","iti","","null","img/motor_8.png","76","motor","","","","","","",""
"579","","1131398","HierDy1bdtr6au","m470azc24a","ms1000355","motor","","65","img/motor_1.png","65","motor","1","266","1","0","0","",""
"null","","1131514","HierDy1bdtr6au","m470azc24a","ms1000355","iti","","null","img/motor_1.png","65","motor","","","","","","",""
"908","","1132430","HierDy1bdtr6au","m470azc24a","ms1000355","motor","","68","img/motor_3.png","68","motor","3","267","1","0","0","",""
"null","","1132538","HierDy1bdtr6au","m470azc24a","ms1000355","iti","","null","img/motor_3.png","68","motor","","","","","","",""
"660","","1133206","HierDy1bdtr6au","m470azc24a","ms1000355","motor","","75","img/motor_7.png","75","motor","7","268","1","0","0","",""
"8","","1133315","HierDy1bdtr6au","m470azc24a","ms1000355","iti","","76","img/motor_7.png","75","motor","","","","","","",""
"572","","1133895","HierDy1bdtr6au","m470azc24a","ms1000355","motor","","74","img/motor_6.png","74","motor","6","269","1","0","0","",""
"null","","1134003","HierDy1bdtr6au","m470azc24a","ms1000355","iti","","null","img/motor_6.png","74","motor","","","","","","",""
"509","","1134519","HierDy1bdtr6au","m470azc24a","ms1000355","motor","","76","img/motor_7.png","75","motor","7","270","0","1","0","",""
"432","","1134959","HierDy1bdtr6au","m470azc24a","ms1000355","motorRepeat","","75","img/motor_7.png","75","motor","7","270","1","0","0","",""
"null","","1135074","HierDy1bdtr6au","m470azc24a","ms1000355","iti","","null","img/motor_7.png","75","motor","","","","","","",""
"427","","1135511","HierDy1bdtr6au","m470azc24a","ms1000355","motor","","74","img/motor_6.png","74","motor","6","271","1","0","0","",""
"null","","1135619","HierDy1bdtr6au","m470azc24a","ms1000355","iti","","null","img/motor_6.png","74","motor","","","","","","",""
"707","","1136335","HierDy1bdtr6au","m470azc24a","ms1000355","motor","","68","img/motor_2.png","83","motor","2","272","0","1","0","",""
"383","","1136727","HierDy1bdtr6au","m470azc24a","ms1000355","motorRepeat","","83","img/motor_2.png","83","motor","2","272","1","0","0","",""
"null","","1136835","HierDy1bdtr6au","m470azc24a","ms1000355","iti","","null","img/motor_2.png","83","motor","","","","","","",""
"578","","1137430","HierDy1bdtr6au","m470azc24a","ms1000355","motor","","76","img/motor_8.png","76","motor","8","273","1","0","0","",""
"null","","1137538","HierDy1bdtr6au","m470azc24a","ms1000355","iti","","null","img/motor_8.png","76","motor","","","","","","",""
"1811","","1139359","HierDy1bdtr6au","m470azc24a","ms1000355","motor","","70","img/motor_4.png","70","motor","4","274","1","0","0","",""
"null","","1139467","HierDy1bdtr6au","m470azc24a","ms1000355","iti","","null","img/motor_4.png","70","motor","","","","","","",""
"612","","1140086","HierDy1bdtr6au","m470azc24a","ms1000355","motor","","65","img/motor_1.png","65","motor","1","275","1","0","0","",""
"null","","1140194","HierDy1bdtr6au","m470azc24a","ms1000355","iti","","null","img/motor_1.png","65","motor","","","","","","",""
"717","","1140919","HierDy1bdtr6au","m470azc24a","ms1000355","motor","","72","img/motor_5.png","72","motor","5","276","1","0","0","",""
"null","","1141034","HierDy1bdtr6au","m470azc24a","ms1000355","iti","","null","img/motor_5.png","72","motor","","","","","","",""
"700","","1141743","HierDy1bdtr6au","m470azc24a","ms1000355","motor","","83","img/motor_2.png","83","motor","2","277","1","0","0","",""
"null","","1141857","HierDy1bdtr6au","m470azc24a","ms1000355","iti","","null","img/motor_2.png","83","motor","","","","","","",""
"605","","1142478","HierDy1bdtr6au","m470azc24a","ms1000355","motor","","65","img/motor_1.png","65","motor","1","278","1","0","0","",""
"null","","1142587","HierDy1bdtr6au","m470azc24a","ms1000355","iti","","null","img/motor_1.png","65","motor","","","","","","",""
"555","","1143150","HierDy1bdtr6au","m470azc24a","ms1000355","motor","","76","img/motor_8.png","76","motor","8","279","1","0","0","",""
"null","","1143258","HierDy1bdtr6au","m470azc24a","ms1000355","iti","","null","img/motor_8.png","76","motor","","","","","","",""
"588","","1143861","HierDy1bdtr6au","m470azc24a","ms1000355","motor","","83","img/motor_2.png","83","motor","2","280","1","0","0","",""
"null","","1143970","HierDy1bdtr6au","m470azc24a","ms1000355","iti","","null","img/motor_2.png","83","motor","","","","","","",""
"381","","1144358","HierDy1bdtr6au","m470azc24a","ms1000355","motor","","83","img/motor_1.png","65","motor","1","281","0","1","0","",""
"304","","1144670","HierDy1bdtr6au","m470azc24a","ms1000355","motorRepeat","","65","img/motor_1.png","65","motor","1","281","1","0","0","",""
"null","","1144778","HierDy1bdtr6au","m470azc24a","ms1000355","iti","","null","img/motor_1.png","65","motor","","","","","","",""
"669","","1145455","HierDy1bdtr6au","m470azc24a","ms1000355","motor","","72","img/motor_5.png","72","motor","5","282","1","0","0","",""
"null","","1145564","HierDy1bdtr6au","m470azc24a","ms1000355","iti","","null","img/motor_5.png","72","motor","","","","","","",""
"563","","1146134","HierDy1bdtr6au","m470azc24a","ms1000355","motor","","70","img/motor_4.png","70","motor","4","283","1","0","0","",""
"null","","1146244","HierDy1bdtr6au","m470azc24a","ms1000355","iti","","null","img/motor_4.png","70","motor","","","","","","",""
"628","","1146878","HierDy1bdtr6au","m470azc24a","ms1000355","motor","","83","img/motor_2.png","83","motor","2","284","1","0","0","",""
"null","","1146993","HierDy1bdtr6au","m470azc24a","ms1000355","iti","","null","img/motor_2.png","83","motor","","","","","","",""
"614","","1147615","HierDy1bdtr6au","m470azc24a","ms1000355","motor","","75","img/motor_7.png","75","motor","7","285","1","0","0","",""
"null","","1147723","HierDy1bdtr6au","m470azc24a","ms1000355","iti","","null","img/motor_7.png","75","motor","","","","","","",""
"547","","1148279","HierDy1bdtr6au","m470azc24a","ms1000355","motor","","83","img/motor_3.png","68","motor","3","286","0","1","0","",""
"321","","1148607","HierDy1bdtr6au","m470azc24a","ms1000355","motorRepeat","","68","img/motor_3.png","68","motor","3","286","1","0","0","",""
"null","","1148716","HierDy1bdtr6au","m470azc24a","ms1000355","iti","","null","img/motor_3.png","68","motor","","","","","","",""
"755","","1149479","HierDy1bdtr6au","m470azc24a","ms1000355","motor","","74","img/motor_6.png","74","motor","6","287","1","0","0","",""
"null","","1149594","HierDy1bdtr6au","m470azc24a","ms1000355","iti","","null","img/motor_6.png","74","motor","","","","","","",""
"596","","1150199","HierDy1bdtr6au","m470azc24a","ms1000355","motor","","72","img/motor_5.png","72","motor","5","288","1","0","0","",""
"null","","1150308","HierDy1bdtr6au","m470azc24a","ms1000355","iti","","null","img/motor_5.png","72","motor","","","","","","",""
"819","","1151141","HierDy1bdtr6au","m470azc24a","ms1000355","motor","","72","img/motor_6.png","74","motor","6","289","0","1","0","",""
"1080","","1152231","HierDy1bdtr6au","m470azc24a","ms1000355","motorRepeat","","74","img/motor_6.png","74","motor","6","289","1","0","0","",""
"null","","1152339","HierDy1bdtr6au","m470azc24a","ms1000355","iti","","null","img/motor_6.png","74","motor","","","","","","",""
"651","","1153005","HierDy1bdtr6au","m470azc24a","ms1000355","motor","","65","img/motor_1.png","65","motor","1","290","1","0","0","",""
"null","","1153121","HierDy1bdtr6au","m470azc24a","ms1000355","iti","","null","img/motor_1.png","65","motor","","","","","","",""
"477","","1153614","HierDy1bdtr6au","m470azc24a","ms1000355","motor","","76","img/motor_8.png","76","motor","8","291","1","0","0","",""
"null","","1153729","HierDy1bdtr6au","m470azc24a","ms1000355","iti","","null","img/motor_8.png","76","motor","","","","","","",""
"684","","1154424","HierDy1bdtr6au","m470azc24a","ms1000355","motor","","68","img/motor_3.png","68","motor","3","292","1","0","0","",""
"null","","1154532","HierDy1bdtr6au","m470azc24a","ms1000355","iti","","null","img/motor_3.png","68","motor","","","","","","",""
"467","","1155007","HierDy1bdtr6au","m470azc24a","ms1000355","motor","","74","img/motor_6.png","74","motor","6","293","1","0","0","",""
"null","","1155115","HierDy1bdtr6au","m470azc24a","ms1000355","iti","","null","img/motor_6.png","74","motor","","","","","","",""
"492","","1155615","HierDy1bdtr6au","m470azc24a","ms1000355","motor","","68","img/motor_3.png","68","motor","3","294","1","0","0","",""
"null","","1155722","HierDy1bdtr6au","m470azc24a","ms1000355","iti","","null","img/motor_3.png","68","motor","","","","","","",""
"524","","1156261","HierDy1bdtr6au","m470azc24a","ms1000355","motor","","68","img/motor_3.png","68","motor","3","295","1","0","0","",""
"null","","1156371","HierDy1bdtr6au","m470azc24a","ms1000355","iti","","null","img/motor_3.png","68","motor","","","","","","",""
"500","","1156878","HierDy1bdtr6au","m470azc24a","ms1000355","motor","","74","img/motor_6.png","74","motor","6","296","1","0","0","",""
"null","","1156993","HierDy1bdtr6au","m470azc24a","ms1000355","iti","","null","img/motor_6.png","74","motor","","","","","","",""
"510","","1157511","HierDy1bdtr6au","m470azc24a","ms1000355","motor","","75","img/motor_7.png","75","motor","7","297","1","0","0","",""
"null","","1157626","HierDy1bdtr6au","m470azc24a","ms1000355","iti","","null","img/motor_7.png","75","motor","","","","","","",""
"579","","1158215","HierDy1bdtr6au","m470azc24a","ms1000355","motor","","68","img/motor_2.png","83","motor","2","298","0","1","0","",""
"311","","1158534","HierDy1bdtr6au","m470azc24a","ms1000355","motorRepeat","","83","img/motor_2.png","83","motor","2","298","1","0","0","",""
"null","","1158643","HierDy1bdtr6au","m470azc24a","ms1000355","iti","","null","img/motor_2.png","83","motor","","","","","","",""
"476","","1159127","HierDy1bdtr6au","m470azc24a","ms1000355","motor","","65","img/motor_1.png","65","motor","1","299","1","0","0","",""
"null","","1159235","HierDy1bdtr6au","m470azc24a","ms1000355","iti","","null","img/motor_1.png","65","motor","","","","","","",""
"787","","1160030","HierDy1bdtr6au","m470azc24a","ms1000355","motor","","72","img/motor_5.png","72","motor","5","300","1","0","0","",""
"null","","1160138","HierDy1bdtr6au","m470azc24a","ms1000355","iti","","null","img/motor_5.png","72","motor","","","","","","",""
"427","","1160574","HierDy1bdtr6au","m470azc24a","ms1000355","motor","","74","img/motor_6.png","74","motor","6","301","1","0","0","",""
"null","","1160688","HierDy1bdtr6au","m470azc24a","ms1000355","iti","","null","img/motor_6.png","74","motor","","","","","","",""
"646","","1161343","HierDy1bdtr6au","m470azc24a","ms1000355","motor","","70","img/motor_4.png","70","motor","4","302","1","0","0","",""
"null","","1161452","HierDy1bdtr6au","m470azc24a","ms1000355","iti","","null","img/motor_4.png","70","motor","","","","","","",""
"539","","1162006","HierDy1bdtr6au","m470azc24a","ms1000355","motor","","65","img/motor_1.png","65","motor","1","303","1","0","0","",""
"16","","1162115","HierDy1bdtr6au","m470azc24a","ms1000355","iti","","83","img/motor_1.png","65","motor","","","","","","",""
"819","","1162942","HierDy1bdtr6au","m470azc24a","ms1000355","motor","","68","img/motor_3.png","68","motor","3","304","1","0","0","",""
"null","","1163058","HierDy1bdtr6au","m470azc24a","ms1000355","iti","","null","img/motor_3.png","68","motor","","","","","","",""
"1019","","1164086","HierDy1bdtr6au","m470azc24a","ms1000355","motor","","72","img/motor_5.png","72","motor","5","305","1","0","0","",""
"null","","1164196","HierDy1bdtr6au","m470azc24a","ms1000355","iti","","null","img/motor_5.png","72","motor","","","","","","",""
"708","","1164918","HierDy1bdtr6au","m470azc24a","ms1000355","motor","","75","img/motor_7.png","75","motor","7","306","1","0","0","",""
"2","","1165034","HierDy1bdtr6au","m470azc24a","ms1000355","iti","","76","img/motor_7.png","75","motor","","","","","","",""
"501","","1165542","HierDy1bdtr6au","m470azc24a","ms1000355","motor","","75","img/motor_7.png","75","motor","7","307","1","0","0","",""
"null","","1165650","HierDy1bdtr6au","m470azc24a","ms1000355","iti","","null","img/motor_7.png","75","motor","","","","","","",""
"1428","","1167087","HierDy1bdtr6au","m470azc24a","ms1000355","motor","","74","img/motor_6.png","74","motor","6","308","1","0","0","",""
"null","","1167196","HierDy1bdtr6au","m470azc24a","ms1000355","iti","","null","img/motor_6.png","74","motor","","","","","","",""
"579","","1167789","HierDy1bdtr6au","m470azc24a","ms1000355","motor","","83","img/motor_2.png","83","motor","2","309","1","0","0","",""
"null","","1167899","HierDy1bdtr6au","m470azc24a","ms1000355","iti","","null","img/motor_2.png","83","motor","","","","","","",""
"629","","1168535","HierDy1bdtr6au","m470azc24a","ms1000355","motor","","76","img/motor_8.png","76","motor","8","310","1","0","0","",""
"null","","1168643","HierDy1bdtr6au","m470azc24a","ms1000355","iti","","null","img/motor_8.png","76","motor","","","","","","",""
"557","","1169207","HierDy1bdtr6au","m470azc24a","ms1000355","motor","","74","img/motor_5.png","72","motor","5","311","0","1","0","",""
"696","","1169911","HierDy1bdtr6au","m470azc24a","ms1000355","motorRepeat","","75","img/motor_5.png","72","motor","5","311","0","1","0","",""
"471","","1170391","HierDy1bdtr6au","m470azc24a","ms1000355","motorRepeat","","72","img/motor_5.png","72","motor","5","311","1","0","0","",""
"null","","1170506","HierDy1bdtr6au","m470azc24a","ms1000355","iti","","null","img/motor_5.png","72","motor","","","","","","",""
"516","","1171031","HierDy1bdtr6au","m470azc24a","ms1000355","motor","","76","img/motor_8.png","76","motor","8","312","1","0","0","",""
"null","","1171139","HierDy1bdtr6au","m470azc24a","ms1000355","iti","","null","img/motor_8.png","76","motor","","","","","","",""
"587","","1171735","HierDy1bdtr6au","m470azc24a","ms1000355","motor","","74","img/motor_6.png","74","motor","6","313","1","0","0","",""
"null","","1171844","HierDy1bdtr6au","m470azc24a","ms1000355","iti","","null","img/motor_6.png","74","motor","","","","","","",""
"508","","1172359","HierDy1bdtr6au","m470azc24a","ms1000355","motor","","83","img/motor_2.png","83","motor","2","314","1","0","0","",""
"null","","1172474","HierDy1bdtr6au","m470azc24a","ms1000355","iti","","null","img/motor_2.png","83","motor","","","","","","",""
"628","","1173118","HierDy1bdtr6au","m470azc24a","ms1000355","motor","","72","img/motor_5.png","72","motor","5","315","1","0","0","",""
"null","","1173234","HierDy1bdtr6au","m470azc24a","ms1000355","iti","","null","img/motor_5.png","72","motor","","","","","","",""
"468","","1173718","HierDy1bdtr6au","m470azc24a","ms1000355","motor","","76","img/motor_8.png","76","motor","8","316","1","0","0","",""
"null","","1173833","HierDy1bdtr6au","m470azc24a","ms1000355","iti","","null","img/motor_8.png","76","motor","","","","","","",""
"597","","1174445","HierDy1bdtr6au","m470azc24a","ms1000355","motor","","83","img/motor_4.png","70","motor","4","317","0","1","0","",""
"336","","1174789","HierDy1bdtr6au","m470azc24a","ms1000355","motorRepeat","","68","img/motor_4.png","70","motor","4","317","0","1","0","",""
"426","","1175222","HierDy1bdtr6au","m470azc24a","ms1000355","motorRepeat","","70","img/motor_4.png","70","motor","4","317","1","0","0","",""
"null","","1175330","HierDy1bdtr6au","m470azc24a","ms1000355","iti","","null","img/motor_4.png","70","motor","","","","","","",""
"573","","1175918","HierDy1bdtr6au","m470azc24a","ms1000355","motor","","65","img/motor_1.png","65","motor","1","318","1","0","0","",""
"null","","1176033","HierDy1bdtr6au","m470azc24a","ms1000355","iti","","null","img/motor_1.png","65","motor","","","","","","",""
"500","","1176550","HierDy1bdtr6au","m470azc24a","ms1000355","motor","","70","img/motor_4.png","70","motor","4","319","1","0","0","",""
"null","","1176659","HierDy1bdtr6au","m470azc24a","ms1000355","iti","","null","img/motor_4.png","70","motor","","","","","","",""
"660","","1177326","HierDy1bdtr6au","m470azc24a","ms1000355","motor","","65","img/motor_1.png","65","motor","1","320","1","0","0","",""
"null","","1177435","HierDy1bdtr6au","m470azc24a","ms1000355","iti","","null","img/motor_1.png","65","motor","","","","","","",""
"476","","1177926","HierDy1bdtr6au","m470azc24a","ms1000355","motor","","70","img/motor_4.png","70","motor","4","321","1","0","0","",""
"null","","1178042","HierDy1bdtr6au","m470azc24a","ms1000355","iti","","null","img/motor_4.png","70","motor","","","","","","",""
"645","","1178701","HierDy1bdtr6au","m470azc24a","ms1000355","motor","","75","img/motor_7.png","75","motor","7","322","1","0","0","",""
"null","","1178810","HierDy1bdtr6au","m470azc24a","ms1000355","iti","","null","img/motor_7.png","75","motor","","","","","","",""
"708","","1179534","HierDy1bdtr6au","m470azc24a","ms1000355","motor","","72","img/motor_5.png","72","motor","5","323","1","0","0","",""
"null","","1179642","HierDy1bdtr6au","m470azc24a","ms1000355","iti","","null","img/motor_5.png","72","motor","","","","","","",""
"555","","1180207","HierDy1bdtr6au","m470azc24a","ms1000355","motor","","65","img/motor_1.png","65","motor","1","324","1","0","0","",""
"null","","1180315","HierDy1bdtr6au","m470azc24a","ms1000355","iti","","null","img/motor_1.png","65","motor","","","","","","",""
"595","","1180926","HierDy1bdtr6au","m470azc24a","ms1000355","motor","","74","img/motor_6.png","74","motor","6","325","1","0","0","",""
"null","","1181042","HierDy1bdtr6au","m470azc24a","ms1000355","iti","","null","img/motor_6.png","74","motor","","","","","","",""
"604","","1181661","HierDy1bdtr6au","m470azc24a","ms1000355","motor","","83","img/motor_3.png","68","motor","3","326","0","1","0","",""
"528","","1182198","HierDy1bdtr6au","m470azc24a","ms1000355","motorRepeat","","83","img/motor_3.png","68","motor","3","326","0","1","0","",""
"760","","1182974","HierDy1bdtr6au","m470azc24a","ms1000355","motorRepeat","","68","img/motor_3.png","68","motor","3","326","1","0","0","",""
"null","","1183090","HierDy1bdtr6au","m470azc24a","ms1000355","iti","","null","img/motor_3.png","68","motor","","","","","","",""
"620","","1183719","HierDy1bdtr6au","m470azc24a","ms1000355","motor","","65","img/motor_1.png","65","motor","1","327","1","0","0","",""
"null","","1183834","HierDy1bdtr6au","m470azc24a","ms1000355","iti","","null","img/motor_1.png","65","motor","","","","","","",""
"692","","1184542","HierDy1bdtr6au","m470azc24a","ms1000355","motor","","72","img/motor_5.png","72","motor","5","328","1","0","0","",""
"null","","1184651","HierDy1bdtr6au","m470azc24a","ms1000355","iti","","null","img/motor_5.png","72","motor","","","","","","",""
"613","","1185272","HierDy1bdtr6au","m470azc24a","ms1000355","motor","","68","img/motor_3.png","68","motor","3","329","1","0","0","",""
"null","","1185380","HierDy1bdtr6au","m470azc24a","ms1000355","iti","","null","img/motor_3.png","68","motor","","","","","","",""
"939","","1186327","HierDy1bdtr6au","m470azc24a","ms1000355","motor","","75","img/motor_7.png","75","motor","7","330","1","0","0","",""
"null","","1186442","HierDy1bdtr6au","m470azc24a","ms1000355","iti","","null","img/motor_7.png","75","motor","","","","","","",""
"555","","1187014","HierDy1bdtr6au","m470azc24a","ms1000355","motor","","65","img/motor_1.png","65","motor","1","331","1","0","0","",""
"null","","1187122","HierDy1bdtr6au","m470azc24a","ms1000355","iti","","null","img/motor_1.png","65","motor","","","","","","",""
"764","","1187896","HierDy1bdtr6au","m470azc24a","ms1000355","motor","","74","img/motor_7.png","75","motor","7","332","0","1","0","",""
"72","","1187982","HierDy1bdtr6au","m470azc24a","ms1000355","motorRepeat","","75","img/motor_7.png","75","motor","7","332","1","0","0","",""
"null","","1188097","HierDy1bdtr6au","m470azc24a","ms1000355","iti","","null","img/motor_7.png","75","motor","","","","","","",""
"531","","1188639","HierDy1bdtr6au","m470azc24a","ms1000355","motor","","76","img/motor_8.png","76","motor","8","333","1","0","0","",""
"null","","1188748","HierDy1bdtr6au","m470azc24a","ms1000355","iti","","null","img/motor_8.png","76","motor","","","","","","",""
"420","","1189175","HierDy1bdtr6au","m470azc24a","ms1000355","motor","","76","img/motor_8.png","76","motor","8","334","1","0","0","",""
"null","","1189290","HierDy1bdtr6au","m470azc24a","ms1000355","iti","","null","img/motor_8.png","76","motor","","","","","","",""
"637","","1189935","HierDy1bdtr6au","m470azc24a","ms1000355","motor","","70","img/motor_4.png","70","motor","4","335","1","0","0","",""
"null","","1190050","HierDy1bdtr6au","m470azc24a","ms1000355","iti","","null","img/motor_4.png","70","motor","","","","","","",""
"675","","1190742","HierDy1bdtr6au","m470azc24a","ms1000355","motor","","68","img/motor_3.png","68","motor","3","336","1","0","0","",""
"null","","1190851","HierDy1bdtr6au","m470azc24a","ms1000355","iti","","null","img/motor_3.png","68","motor","","","","","","",""
"628","","1191488","HierDy1bdtr6au","m470azc24a","ms1000355","motor","","65","img/motor_1.png","65","motor","1","337","1","0","0","",""
"null","","1191597","HierDy1bdtr6au","m470azc24a","ms1000355","iti","","null","img/motor_1.png","65","motor","","","","","","",""
"627","","1192230","HierDy1bdtr6au","m470azc24a","ms1000355","motor","","83","img/motor_2.png","83","motor","2","338","1","0","0","",""
"null","","1192339","HierDy1bdtr6au","m470azc24a","ms1000355","iti","","null","img/motor_2.png","83","motor","","","","","","",""
"388","","1192735","HierDy1bdtr6au","m470azc24a","ms1000355","motor","","83","img/motor_2.png","83","motor","2","339","1","0","0","",""
"null","","1192850","HierDy1bdtr6au","m470azc24a","ms1000355","iti","","null","img/motor_2.png","83","motor","","","","","","",""
"716","","1193575","HierDy1bdtr6au","m470azc24a","ms1000355","motor","","72","img/motor_5.png","72","motor","5","340","1","0","0","",""
"null","","1193690","HierDy1bdtr6au","m470azc24a","ms1000355","iti","","null","img/motor_5.png","72","motor","","","","","","",""
"516","","1194215","HierDy1bdtr6au","m470azc24a","ms1000355","motor","","68","img/motor_2.png","83","motor","2","341","0","1","0","",""
"280","","1194502","HierDy1bdtr6au","m470azc24a","ms1000355","motorRepeat","","83","img/motor_2.png","83","motor","2","341","1","0","0","",""
"null","","1194617","HierDy1bdtr6au","m470azc24a","ms1000355","iti","","null","img/motor_2.png","83","motor","","","","","","",""
"629","","1195255","HierDy1bdtr6au","m470azc24a","ms1000355","motor","","68","img/motor_3.png","68","motor","3","342","1","0","0","",""
"null","","1195370","HierDy1bdtr6au","m470azc24a","ms1000355","iti","","null","img/motor_3.png","68","motor","","","","","","",""
