rt,responses,time_elapsed,subject,prolificID,demoID,trialType,question_order,key_press,stim,corrresp,phase,stimNum,trialNum,corr,repeatTrial,motorSwitch,pracCounter,hierarchy
7971,"{""Q0"":""ms1000272""}",8005,HierDyoxlnh4wk,osukwhqswx,ms1000272,,,,,,,,,,,,,
5389,,13408,HierDyoxlnh4wk,osukwhqswx,ms1000272,,,,,,,,,,,,,
,,15835,HierDyoxlnh4wk,osukwhqswx,ms1000272,fullscreen,,,,,,,,,,,,
13058,"{""Vision"":""Yes"",""Handedness"":""Right"",""Gender"":""male""}",28909,HierDyoxlnh4wk,osukwhqswx,ms1000272,,"[0,1,2]",,,,,,,,,,,
1736,"{""Q0"":""22""}",30660,HierDyoxlnh4wk,osukwhqswx,ms1000272,,,,,,,,,,,,,
75619,,106300,HierDyoxlnh4wk,osukwhqswx,ms1000272,,,,,,,,,,,,,
1226,,107537,HierDyoxlnh4wk,osukwhqswx,ms1000272,motor,,83,img/motor_2.png,83,motor,2,1,1,0,0,,
null,,107652,HierDyoxlnh4wk,osukwhqswx,ms1000272,iti,,null,img/motor_2.png,83,motor,,,,,,,
970,,108631,HierDyoxlnh4wk,osukwhqswx,ms1000272,motor,,74,img/motor_6.png,74,motor,6,2,1,0,0,,
null,,108740,HierDyoxlnh4wk,osukwhqswx,ms1000272,iti,,null,img/motor_6.png,74,motor,,,,,,,
694,,109441,HierDyoxlnh4wk,osukwhqswx,ms1000272,motor,,70,img/motor_4.png,70,motor,4,3,1,0,0,,
null,,109550,HierDyoxlnh4wk,osukwhqswx,ms1000272,iti,,null,img/motor_4.png,70,motor,,,,,,,
1555,,111120,HierDyoxlnh4wk,osukwhqswx,ms1000272,motor,,70,img/motor_4.png,70,motor,4,4,1,0,0,,
null,,111235,HierDyoxlnh4wk,osukwhqswx,ms1000272,iti,,null,img/motor_4.png,70,motor,,,,,,,
638,,111887,HierDyoxlnh4wk,osukwhqswx,ms1000272,motor,,72,img/motor_5.png,72,motor,5,5,1,0,0,,
null,,112002,HierDyoxlnh4wk,osukwhqswx,ms1000272,iti,,null,img/motor_5.png,72,motor,,,,,,,
597,,112615,HierDyoxlnh4wk,osukwhqswx,ms1000272,motor,,83,img/motor_2.png,83,motor,2,6,1,0,0,,
null,,112724,HierDyoxlnh4wk,osukwhqswx,ms1000272,iti,,null,img/motor_2.png,83,motor,,,,,,,
637,,113375,HierDyoxlnh4wk,osukwhqswx,ms1000272,motor,,65,img/motor_1.png,65,motor,1,7,1,0,0,,
null,,113483,HierDyoxlnh4wk,osukwhqswx,ms1000272,iti,,null,img/motor_1.png,65,motor,,,,,,,
573,,114070,HierDyoxlnh4wk,osukwhqswx,ms1000272,motor,,70,img/motor_3.png,68,motor,3,8,0,1,0,,
442,,114527,HierDyoxlnh4wk,osukwhqswx,ms1000272,motorRepeat,,68,img/motor_3.png,68,motor,3,8,1,0,0,,
null,,114636,HierDyoxlnh4wk,osukwhqswx,ms1000272,iti,,null,img/motor_3.png,68,motor,,,,,,,
493,,115144,HierDyoxlnh4wk,osukwhqswx,ms1000272,motor,,70,img/motor_4.png,70,motor,4,9,1,0,0,,
null,,115259,HierDyoxlnh4wk,osukwhqswx,ms1000272,iti,,null,img/motor_4.png,70,motor,,,,,,,
510,,115783,HierDyoxlnh4wk,osukwhqswx,ms1000272,motor,,65,img/motor_1.png,65,motor,1,10,1,0,0,,
null,,115893,HierDyoxlnh4wk,osukwhqswx,ms1000272,iti,,null,img/motor_1.png,65,motor,,,,,,,
499,,116400,HierDyoxlnh4wk,osukwhqswx,ms1000272,motor,,68,img/motor_3.png,68,motor,3,11,1,0,0,,
null,,116515,HierDyoxlnh4wk,osukwhqswx,ms1000272,iti,,null,img/motor_3.png,68,motor,,,,,,,
686,,117208,HierDyoxlnh4wk,osukwhqswx,ms1000272,motor,,74,img/motor_6.png,74,motor,6,12,1,0,0,,
null,,117323,HierDyoxlnh4wk,osukwhqswx,ms1000272,iti,,null,img/motor_6.png,74,motor,,,,,,,
550,,117880,HierDyoxlnh4wk,osukwhqswx,ms1000272,motor,,68,img/motor_3.png,68,motor,3,13,1,0,0,,
null,,117994,HierDyoxlnh4wk,osukwhqswx,ms1000272,iti,,null,img/motor_3.png,68,motor,,,,,,,
525,,118529,HierDyoxlnh4wk,osukwhqswx,ms1000272,motor,,76,img/motor_8.png,76,motor,8,14,1,0,0,,
null,,118643,HierDyoxlnh4wk,osukwhqswx,ms1000272,iti,,null,img/motor_8.png,76,motor,,,,,,,
668,,119321,HierDyoxlnh4wk,osukwhqswx,ms1000272,motor,,83,img/motor_2.png,83,motor,2,15,1,0,0,,
null,,119429,HierDyoxlnh4wk,osukwhqswx,ms1000272,iti,,null,img/motor_2.png,83,motor,,,,,,,
492,,119929,HierDyoxlnh4wk,osukwhqswx,ms1000272,motor,,76,img/motor_8.png,76,motor,8,16,1,0,0,,
null,,120044,HierDyoxlnh4wk,osukwhqswx,ms1000272,iti,,null,img/motor_8.png,76,motor,,,,,,,
468,,120527,HierDyoxlnh4wk,osukwhqswx,ms1000272,motor,,72,img/motor_5.png,72,motor,5,17,1,0,0,,
null,,120635,HierDyoxlnh4wk,osukwhqswx,ms1000272,iti,,null,img/motor_5.png,72,motor,,,,,,,
421,,121071,HierDyoxlnh4wk,osukwhqswx,ms1000272,motor,,76,img/motor_8.png,76,motor,8,18,1,0,0,,
null,,121180,HierDyoxlnh4wk,osukwhqswx,ms1000272,iti,,null,img/motor_8.png,76,motor,,,,,,,
509,,121696,HierDyoxlnh4wk,osukwhqswx,ms1000272,motor,,83,img/motor_2.png,83,motor,2,19,1,0,0,,
null,,121805,HierDyoxlnh4wk,osukwhqswx,ms1000272,iti,,null,img/motor_2.png,83,motor,,,,,,,
484,,122297,HierDyoxlnh4wk,osukwhqswx,ms1000272,motor,,72,img/motor_5.png,72,motor,5,20,1,0,0,,
null,,122412,HierDyoxlnh4wk,osukwhqswx,ms1000272,iti,,null,img/motor_5.png,72,motor,,,,,,,
454,,122879,HierDyoxlnh4wk,osukwhqswx,ms1000272,motor,,76,img/motor_8.png,76,motor,8,21,1,0,0,,
null,,122988,HierDyoxlnh4wk,osukwhqswx,ms1000272,iti,,null,img/motor_8.png,76,motor,,,,,,,
396,,123399,HierDyoxlnh4wk,osukwhqswx,ms1000272,motor,,72,img/motor_5.png,72,motor,5,22,1,0,0,,
null,,123508,HierDyoxlnh4wk,osukwhqswx,ms1000272,iti,,null,img/motor_5.png,72,motor,,,,,,,
523,,124040,HierDyoxlnh4wk,osukwhqswx,ms1000272,motor,,83,img/motor_2.png,83,motor,2,23,1,0,0,,
null,,124148,HierDyoxlnh4wk,osukwhqswx,ms1000272,iti,,null,img/motor_2.png,83,motor,,,,,,,
438,,124599,HierDyoxlnh4wk,osukwhqswx,ms1000272,motor,,76,img/motor_8.png,76,motor,8,24,1,0,0,,
null,,124708,HierDyoxlnh4wk,osukwhqswx,ms1000272,iti,,null,img/motor_8.png,76,motor,,,,,,,
564,,125281,HierDyoxlnh4wk,osukwhqswx,ms1000272,motor,,70,img/motor_4.png,70,motor,4,25,1,0,0,,
null,,125389,HierDyoxlnh4wk,osukwhqswx,ms1000272,iti,,null,img/motor_4.png,70,motor,,,,,,,
820,,126216,HierDyoxlnh4wk,osukwhqswx,ms1000272,motor,,75,img/motor_7.png,75,motor,7,26,1,0,0,,
null,,126330,HierDyoxlnh4wk,osukwhqswx,ms1000272,iti,,null,img/motor_7.png,75,motor,,,,,,,
533,,126873,HierDyoxlnh4wk,osukwhqswx,ms1000272,motor,,83,img/motor_2.png,83,motor,2,27,1,0,0,,
null,,126981,HierDyoxlnh4wk,osukwhqswx,ms1000272,iti,,null,img/motor_2.png,83,motor,,,,,,,
540,,127535,HierDyoxlnh4wk,osukwhqswx,ms1000272,motor,,74,img/motor_6.png,74,motor,6,28,1,0,0,,
null,,127651,HierDyoxlnh4wk,osukwhqswx,ms1000272,iti,,null,img/motor_6.png,74,motor,,,,,,,
468,,128129,HierDyoxlnh4wk,osukwhqswx,ms1000272,motor,,83,img/motor_2.png,83,motor,2,29,1,0,0,,
null,,128237,HierDyoxlnh4wk,osukwhqswx,ms1000272,iti,,null,img/motor_2.png,83,motor,,,,,,,
443,,128695,HierDyoxlnh4wk,osukwhqswx,ms1000272,motor,,76,img/motor_8.png,76,motor,8,30,1,0,0,,
null,,128810,HierDyoxlnh4wk,osukwhqswx,ms1000272,iti,,null,img/motor_8.png,76,motor,,,,,,,
478,,129302,HierDyoxlnh4wk,osukwhqswx,ms1000272,motor,,76,img/motor_8.png,76,motor,8,31,1,0,0,,
null,,129412,HierDyoxlnh4wk,osukwhqswx,ms1000272,iti,,null,img/motor_8.png,76,motor,,,,,,,
517,,129935,HierDyoxlnh4wk,osukwhqswx,ms1000272,motor,,65,img/motor_1.png,65,motor,1,32,1,0,0,,
null,,130044,HierDyoxlnh4wk,osukwhqswx,ms1000272,iti,,null,img/motor_1.png,65,motor,,,,,,,
581,,130640,HierDyoxlnh4wk,osukwhqswx,ms1000272,motor,,72,img/motor_5.png,72,motor,5,33,1,0,0,,
null,,130755,HierDyoxlnh4wk,osukwhqswx,ms1000272,iti,,null,img/motor_5.png,72,motor,,,,,,,
534,,131303,HierDyoxlnh4wk,osukwhqswx,ms1000272,motor,,70,img/motor_4.png,70,motor,4,34,1,0,0,,
null,,131412,HierDyoxlnh4wk,osukwhqswx,ms1000272,iti,,null,img/motor_4.png,70,motor,,,,,,,
588,,132008,HierDyoxlnh4wk,osukwhqswx,ms1000272,motor,,74,img/motor_6.png,74,motor,6,35,1,0,0,,
null,,132124,HierDyoxlnh4wk,osukwhqswx,ms1000272,iti,,null,img/motor_6.png,74,motor,,,,,,,
741,,132875,HierDyoxlnh4wk,osukwhqswx,ms1000272,motor,,68,img/motor_3.png,68,motor,3,36,1,0,0,,
null,,132990,HierDyoxlnh4wk,osukwhqswx,ms1000272,iti,,null,img/motor_3.png,68,motor,,,,,,,
449,,133456,HierDyoxlnh4wk,osukwhqswx,ms1000272,motor,,65,img/motor_1.png,65,motor,1,37,1,0,0,,
null,,133571,HierDyoxlnh4wk,osukwhqswx,ms1000272,iti,,null,img/motor_1.png,65,motor,,,,,,,
596,,134183,HierDyoxlnh4wk,osukwhqswx,ms1000272,motor,,72,img/motor_5.png,72,motor,5,38,1,0,0,,
null,,134301,HierDyoxlnh4wk,osukwhqswx,ms1000272,iti,,null,img/motor_5.png,72,motor,,,,,,,
547,,134863,HierDyoxlnh4wk,osukwhqswx,ms1000272,motor,,70,img/motor_4.png,70,motor,4,39,1,0,0,,
null,,134973,HierDyoxlnh4wk,osukwhqswx,ms1000272,iti,,null,img/motor_4.png,70,motor,,,,,,,
795,,135783,HierDyoxlnh4wk,osukwhqswx,ms1000272,motor,,75,img/motor_7.png,75,motor,7,40,1,0,0,,
null,,135893,HierDyoxlnh4wk,osukwhqswx,ms1000272,iti,,null,img/motor_7.png,75,motor,,,,,,,
556,,136457,HierDyoxlnh4wk,osukwhqswx,ms1000272,motor,,72,img/motor_5.png,72,motor,5,41,1,0,0,,
null,,136571,HierDyoxlnh4wk,osukwhqswx,ms1000272,iti,,null,img/motor_5.png,72,motor,,,,,,,
494,,137079,HierDyoxlnh4wk,osukwhqswx,ms1000272,motor,,65,img/motor_1.png,65,motor,1,42,1,0,0,,
null,,137195,HierDyoxlnh4wk,osukwhqswx,ms1000272,iti,,null,img/motor_1.png,65,motor,,,,,,,
493,,137704,HierDyoxlnh4wk,osukwhqswx,ms1000272,motor,,83,img/motor_3.png,68,motor,3,43,0,1,0,,
337,,138055,HierDyoxlnh4wk,osukwhqswx,ms1000272,motorRepeat,,68,img/motor_3.png,68,motor,3,43,1,0,0,,
null,,138170,HierDyoxlnh4wk,osukwhqswx,ms1000272,iti,,null,img/motor_3.png,68,motor,,,,,,,
558,,138743,HierDyoxlnh4wk,osukwhqswx,ms1000272,motor,,83,img/motor_2.png,83,motor,2,44,1,0,0,,
null,,138853,HierDyoxlnh4wk,osukwhqswx,ms1000272,iti,,null,img/motor_2.png,83,motor,,,,,,,
483,,139352,HierDyoxlnh4wk,osukwhqswx,ms1000272,motor,,68,img/motor_3.png,68,motor,3,45,1,0,0,,
null,,139467,HierDyoxlnh4wk,osukwhqswx,ms1000272,iti,,null,img/motor_3.png,68,motor,,,,,,,
556,,140040,HierDyoxlnh4wk,osukwhqswx,ms1000272,motor,,74,img/motor_6.png,74,motor,6,46,1,0,0,,
null,,140154,HierDyoxlnh4wk,osukwhqswx,ms1000272,iti,,null,img/motor_6.png,74,motor,,,,,,,
759,,140927,HierDyoxlnh4wk,osukwhqswx,ms1000272,motor,,72,img/motor_5.png,72,motor,5,47,1,0,0,,
null,,141041,HierDyoxlnh4wk,osukwhqswx,ms1000272,iti,,null,img/motor_5.png,72,motor,,,,,,,
392,,141447,HierDyoxlnh4wk,osukwhqswx,ms1000272,motor,,76,img/motor_8.png,76,motor,8,48,1,0,0,,
null,,141563,HierDyoxlnh4wk,osukwhqswx,ms1000272,iti,,null,img/motor_8.png,76,motor,,,,,,,
477,,142049,HierDyoxlnh4wk,osukwhqswx,ms1000272,motor,,72,img/motor_5.png,72,motor,5,49,1,0,0,,
null,,142164,HierDyoxlnh4wk,osukwhqswx,ms1000272,iti,,null,img/motor_5.png,72,motor,,,,,,,
357,,142536,HierDyoxlnh4wk,osukwhqswx,ms1000272,motor,,76,img/motor_8.png,76,motor,8,50,1,0,0,,
null,,142645,HierDyoxlnh4wk,osukwhqswx,ms1000272,iti,,null,img/motor_8.png,76,motor,,,,,,,
476,,143129,HierDyoxlnh4wk,osukwhqswx,ms1000272,motor,,65,img/motor_1.png,65,motor,1,51,1,0,0,,
null,,143238,HierDyoxlnh4wk,osukwhqswx,ms1000272,iti,,null,img/motor_1.png,65,motor,,,,,,,
380,,143625,HierDyoxlnh4wk,osukwhqswx,ms1000272,motor,,76,img/motor_8.png,76,motor,8,52,1,0,0,,
null,,143734,HierDyoxlnh4wk,osukwhqswx,ms1000272,iti,,null,img/motor_8.png,76,motor,,,,,,,
532,,144274,HierDyoxlnh4wk,osukwhqswx,ms1000272,motor,,74,img/motor_6.png,74,motor,6,53,1,0,0,,
null,,144388,HierDyoxlnh4wk,osukwhqswx,ms1000272,iti,,null,img/motor_6.png,74,motor,,,,,,,
459,,144856,HierDyoxlnh4wk,osukwhqswx,ms1000272,motor,,70,img/motor_4.png,70,motor,4,54,1,0,0,,
null,,144964,HierDyoxlnh4wk,osukwhqswx,ms1000272,iti,,null,img/motor_4.png,70,motor,,,,,,,
453,,145431,HierDyoxlnh4wk,osukwhqswx,ms1000272,motor,,72,img/motor_5.png,72,motor,5,55,1,0,0,,
null,,145546,HierDyoxlnh4wk,osukwhqswx,ms1000272,iti,,null,img/motor_5.png,72,motor,,,,,,,
366,,145921,HierDyoxlnh4wk,osukwhqswx,ms1000272,motor,,76,img/motor_8.png,76,motor,8,56,1,0,0,,
null,,146036,HierDyoxlnh4wk,osukwhqswx,ms1000272,iti,,null,img/motor_8.png,76,motor,,,,,,,
397,,146441,HierDyoxlnh4wk,osukwhqswx,ms1000272,motor,,72,img/motor_5.png,72,motor,5,57,1,0,0,,
null,,146555,HierDyoxlnh4wk,osukwhqswx,ms1000272,iti,,null,img/motor_5.png,72,motor,,,,,,,
558,,147122,HierDyoxlnh4wk,osukwhqswx,ms1000272,motor,,68,img/motor_3.png,68,motor,3,58,1,0,0,,
null,,147236,HierDyoxlnh4wk,osukwhqswx,ms1000272,iti,,null,img/motor_3.png,68,motor,,,,,,,
539,,147785,HierDyoxlnh4wk,osukwhqswx,ms1000272,motor,,70,img/motor_4.png,70,motor,4,59,1,0,0,,
null,,147900,HierDyoxlnh4wk,osukwhqswx,ms1000272,iti,,null,img/motor_4.png,70,motor,,,,,,,
557,,148472,HierDyoxlnh4wk,osukwhqswx,ms1000272,motor,,83,img/motor_2.png,83,motor,2,60,1,0,0,,
null,,148581,HierDyoxlnh4wk,osukwhqswx,ms1000272,iti,,null,img/motor_2.png,83,motor,,,,,,,
469,,149063,HierDyoxlnh4wk,osukwhqswx,ms1000272,motor,,76,img/motor_8.png,76,motor,8,61,1,0,0,,
null,,149179,HierDyoxlnh4wk,osukwhqswx,ms1000272,iti,,null,img/motor_8.png,76,motor,,,,,,,
550,,149743,HierDyoxlnh4wk,osukwhqswx,ms1000272,motor,,83,img/motor_2.png,83,motor,2,62,1,0,0,,
null,,149859,HierDyoxlnh4wk,osukwhqswx,ms1000272,iti,,null,img/motor_2.png,83,motor,,,,,,,
566,,150440,HierDyoxlnh4wk,osukwhqswx,ms1000272,motor,,74,img/motor_6.png,74,motor,6,63,1,0,0,,
null,,150555,HierDyoxlnh4wk,osukwhqswx,ms1000272,iti,,null,img/motor_6.png,74,motor,,,,,,,
532,,151097,HierDyoxlnh4wk,osukwhqswx,ms1000272,motor,,65,img/motor_1.png,65,motor,1,64,1,0,0,,
null,,151206,HierDyoxlnh4wk,osukwhqswx,ms1000272,iti,,null,img/motor_1.png,65,motor,,,,,,,
459,,151679,HierDyoxlnh4wk,osukwhqswx,ms1000272,motor,,72,img/motor_5.png,72,motor,5,65,1,0,0,,
null,,151795,HierDyoxlnh4wk,osukwhqswx,ms1000272,iti,,null,img/motor_5.png,72,motor,,,,,,,
550,,152359,HierDyoxlnh4wk,osukwhqswx,ms1000272,motor,,83,img/motor_2.png,83,motor,2,66,1,0,0,,
null,,152469,HierDyoxlnh4wk,osukwhqswx,ms1000272,iti,,null,img/motor_2.png,83,motor,,,,,,,
733,,153209,HierDyoxlnh4wk,osukwhqswx,ms1000272,motor,,68,img/motor_3.png,68,motor,3,67,1,0,0,,
null,,153324,HierDyoxlnh4wk,osukwhqswx,ms1000272,iti,,null,img/motor_3.png,68,motor,,,,,,,
509,,153848,HierDyoxlnh4wk,osukwhqswx,ms1000272,motor,,72,img/motor_5.png,72,motor,5,68,1,0,0,,
null,,153957,HierDyoxlnh4wk,osukwhqswx,ms1000272,iti,,null,img/motor_5.png,72,motor,,,,,,,
493,,154463,HierDyoxlnh4wk,osukwhqswx,ms1000272,motor,,75,img/motor_7.png,75,motor,7,69,1,0,0,,
null,,154572,HierDyoxlnh4wk,osukwhqswx,ms1000272,iti,,null,img/motor_7.png,75,motor,,,,,,,
604,,155185,HierDyoxlnh4wk,osukwhqswx,ms1000272,motor,,68,img/motor_3.png,68,motor,3,70,1,0,0,,
null,,155300,HierDyoxlnh4wk,osukwhqswx,ms1000272,iti,,null,img/motor_3.png,68,motor,,,,,,,
453,,155761,HierDyoxlnh4wk,osukwhqswx,ms1000272,motor,,76,img/motor_8.png,76,motor,8,71,1,0,0,,
null,,155870,HierDyoxlnh4wk,osukwhqswx,ms1000272,iti,,null,img/motor_8.png,76,motor,,,,,,,
458,,156337,HierDyoxlnh4wk,osukwhqswx,ms1000272,motor,,75,img/motor_7.png,75,motor,7,72,1,0,0,,
null,,156446,HierDyoxlnh4wk,osukwhqswx,ms1000272,iti,,null,img/motor_7.png,75,motor,,,,,,,
605,,157064,HierDyoxlnh4wk,osukwhqswx,ms1000272,motor,,68,img/motor_3.png,68,motor,3,73,1,0,0,,
null,,157179,HierDyoxlnh4wk,osukwhqswx,ms1000272,iti,,null,img/motor_3.png,68,motor,,,,,,,
462,,157656,HierDyoxlnh4wk,osukwhqswx,ms1000272,motor,,72,img/motor_5.png,72,motor,5,74,1,0,0,,
null,,157771,HierDyoxlnh4wk,osukwhqswx,ms1000272,iti,,null,img/motor_5.png,72,motor,,,,,,,
517,,158297,HierDyoxlnh4wk,osukwhqswx,ms1000272,motor,,83,img/motor_3.png,68,motor,3,75,0,1,0,,
328,,158633,HierDyoxlnh4wk,osukwhqswx,ms1000272,motorRepeat,,68,img/motor_3.png,68,motor,3,75,1,0,0,,
null,,158748,HierDyoxlnh4wk,osukwhqswx,ms1000272,iti,,null,img/motor_3.png,68,motor,,,,,,,
421,,159177,HierDyoxlnh4wk,osukwhqswx,ms1000272,motor,,72,img/motor_5.png,72,motor,5,76,1,0,0,,
null,,159291,HierDyoxlnh4wk,osukwhqswx,ms1000272,iti,,null,img/motor_5.png,72,motor,,,,,,,
637,,159944,HierDyoxlnh4wk,osukwhqswx,ms1000272,motor,,83,img/motor_3.png,68,motor,3,77,0,1,0,,
321,,160279,HierDyoxlnh4wk,osukwhqswx,ms1000272,motorRepeat,,68,img/motor_3.png,68,motor,3,77,1,0,0,,
null,,160395,HierDyoxlnh4wk,osukwhqswx,ms1000272,iti,,null,img/motor_3.png,68,motor,,,,,,,
478,,160881,HierDyoxlnh4wk,osukwhqswx,ms1000272,motor,,68,img/motor_3.png,68,motor,3,78,1,0,0,,
null,,160995,HierDyoxlnh4wk,osukwhqswx,ms1000272,iti,,null,img/motor_3.png,68,motor,,,,,,,
461,,161472,HierDyoxlnh4wk,osukwhqswx,ms1000272,motor,,72,img/motor_4.png,70,motor,4,79,0,1,0,,
297,,161778,HierDyoxlnh4wk,osukwhqswx,ms1000272,motorRepeat,,70,img/motor_4.png,70,motor,4,79,1,0,0,,
null,,161892,HierDyoxlnh4wk,osukwhqswx,ms1000272,iti,,null,img/motor_4.png,70,motor,,,,,,,
613,,162513,HierDyoxlnh4wk,osukwhqswx,ms1000272,motor,,74,img/motor_6.png,74,motor,6,80,1,0,0,,
null,,162628,HierDyoxlnh4wk,osukwhqswx,ms1000272,iti,,null,img/motor_6.png,74,motor,,,,,,,
452,,163095,HierDyoxlnh4wk,osukwhqswx,ms1000272,motor,,70,img/motor_4.png,70,motor,4,81,1,0,0,,
null,,163210,HierDyoxlnh4wk,osukwhqswx,ms1000272,iti,,null,img/motor_4.png,70,motor,,,,,,,
476,,163703,HierDyoxlnh4wk,osukwhqswx,ms1000272,motor,,65,img/motor_1.png,65,motor,1,82,1,0,0,,
null,,163818,HierDyoxlnh4wk,osukwhqswx,ms1000272,iti,,null,img/motor_1.png,65,motor,,,,,,,
542,,164375,HierDyoxlnh4wk,osukwhqswx,ms1000272,motor,,75,img/motor_7.png,75,motor,7,83,1,0,0,,
null,,164491,HierDyoxlnh4wk,osukwhqswx,ms1000272,iti,,null,img/motor_7.png,75,motor,,,,,,,
524,,165024,HierDyoxlnh4wk,osukwhqswx,ms1000272,motor,,65,img/motor_1.png,65,motor,1,84,1,0,0,,
null,,165139,HierDyoxlnh4wk,osukwhqswx,ms1000272,iti,,null,img/motor_1.png,65,motor,,,,,,,
453,,165601,HierDyoxlnh4wk,osukwhqswx,ms1000272,motor,,65,img/motor_1.png,65,motor,1,85,1,0,0,,
null,,165716,HierDyoxlnh4wk,osukwhqswx,ms1000272,iti,,null,img/motor_1.png,65,motor,,,,,,,
484,,166216,HierDyoxlnh4wk,osukwhqswx,ms1000272,motor,,68,img/motor_3.png,68,motor,3,86,1,0,0,,
null,,166331,HierDyoxlnh4wk,osukwhqswx,ms1000272,iti,,null,img/motor_3.png,68,motor,,,,,,,
494,,166833,HierDyoxlnh4wk,osukwhqswx,ms1000272,motor,,75,img/motor_7.png,75,motor,7,87,1,0,0,,
null,,166948,HierDyoxlnh4wk,osukwhqswx,ms1000272,iti,,null,img/motor_7.png,75,motor,,,,,,,
485,,167447,HierDyoxlnh4wk,osukwhqswx,ms1000272,motor,,70,img/motor_4.png,70,motor,4,88,1,0,0,,
null,,167555,HierDyoxlnh4wk,osukwhqswx,ms1000272,iti,,null,img/motor_4.png,70,motor,,,,,,,
397,,167960,HierDyoxlnh4wk,osukwhqswx,ms1000272,motor,,72,img/motor_5.png,72,motor,5,89,1,0,0,,
null,,168076,HierDyoxlnh4wk,osukwhqswx,ms1000272,iti,,null,img/motor_5.png,72,motor,,,,,,,
445,,168535,HierDyoxlnh4wk,osukwhqswx,ms1000272,motor,,65,img/motor_1.png,65,motor,1,90,1,0,0,,
null,,168651,HierDyoxlnh4wk,osukwhqswx,ms1000272,iti,,null,img/motor_1.png,65,motor,,,,,,,
397,,169064,HierDyoxlnh4wk,osukwhqswx,ms1000272,motor,,76,img/motor_8.png,76,motor,8,91,1,0,0,,
null,,169179,HierDyoxlnh4wk,osukwhqswx,ms1000272,iti,,null,img/motor_8.png,76,motor,,,,,,,
597,,169791,HierDyoxlnh4wk,osukwhqswx,ms1000272,motor,,68,img/motor_3.png,68,motor,3,92,1,0,0,,
16,,169907,HierDyoxlnh4wk,osukwhqswx,ms1000272,iti,,83,img/motor_3.png,68,motor,,,,,,,
726,,170647,HierDyoxlnh4wk,osukwhqswx,ms1000272,motor,,75,img/motor_7.png,75,motor,7,93,1,0,0,,
null,,170756,HierDyoxlnh4wk,osukwhqswx,ms1000272,iti,,null,img/motor_7.png,75,motor,,,,,,,
516,,171281,HierDyoxlnh4wk,osukwhqswx,ms1000272,motor,,70,img/motor_4.png,70,motor,4,94,1,0,0,,
null,,171389,HierDyoxlnh4wk,osukwhqswx,ms1000272,iti,,null,img/motor_4.png,70,motor,,,,,,,
844,,172241,HierDyoxlnh4wk,osukwhqswx,ms1000272,motor,,83,img/motor_2.png,83,motor,2,95,1,0,0,,
null,,172355,HierDyoxlnh4wk,osukwhqswx,ms1000272,iti,,null,img/motor_2.png,83,motor,,,,,,,
629,,172999,HierDyoxlnh4wk,osukwhqswx,ms1000272,motor,,68,img/motor_3.png,68,motor,3,96,1,0,0,,
null,,173109,HierDyoxlnh4wk,osukwhqswx,ms1000272,iti,,null,img/motor_3.png,68,motor,,,,,,,
845,,173968,HierDyoxlnh4wk,osukwhqswx,ms1000272,motor,,75,img/motor_7.png,75,motor,7,97,1,0,0,,
null,,174078,HierDyoxlnh4wk,osukwhqswx,ms1000272,iti,,null,img/motor_7.png,75,motor,,,,,,,
420,,174511,HierDyoxlnh4wk,osukwhqswx,ms1000272,motor,,76,img/motor_8.png,76,motor,8,98,1,0,0,,
null,,174627,HierDyoxlnh4wk,osukwhqswx,ms1000272,iti,,null,img/motor_8.png,76,motor,,,,,,,
415,,175056,HierDyoxlnh4wk,osukwhqswx,ms1000272,motor,,76,img/motor_8.png,76,motor,8,99,1,0,0,,
null,,175172,HierDyoxlnh4wk,osukwhqswx,ms1000272,iti,,null,img/motor_8.png,76,motor,,,,,,,
540,,175727,HierDyoxlnh4wk,osukwhqswx,ms1000272,motor,,75,img/motor_7.png,75,motor,7,100,1,0,0,,
null,,175836,HierDyoxlnh4wk,osukwhqswx,ms1000272,iti,,null,img/motor_7.png,75,motor,,,,,,,
551,,176400,HierDyoxlnh4wk,osukwhqswx,ms1000272,motor,,70,img/motor_4.png,70,motor,4,101,1,0,0,,
null,,176509,HierDyoxlnh4wk,osukwhqswx,ms1000272,iti,,null,img/motor_4.png,70,motor,,,,,,,
484,,177008,HierDyoxlnh4wk,osukwhqswx,ms1000272,motor,,76,img/motor_8.png,76,motor,8,102,1,0,0,,
null,,177117,HierDyoxlnh4wk,osukwhqswx,ms1000272,iti,,null,img/motor_8.png,76,motor,,,,,,,
453,,177578,HierDyoxlnh4wk,osukwhqswx,ms1000272,motor,,72,img/motor_5.png,72,motor,5,103,1,0,0,,
null,,177687,HierDyoxlnh4wk,osukwhqswx,ms1000272,iti,,null,img/motor_5.png,72,motor,,,,,,,
441,,178143,HierDyoxlnh4wk,osukwhqswx,ms1000272,motor,,70,img/motor_4.png,70,motor,4,104,1,0,0,,
null,,178259,HierDyoxlnh4wk,osukwhqswx,ms1000272,iti,,null,img/motor_4.png,70,motor,,,,,,,
389,,178664,HierDyoxlnh4wk,osukwhqswx,ms1000272,motor,,70,img/motor_4.png,70,motor,4,105,1,0,0,,
null,,178780,HierDyoxlnh4wk,osukwhqswx,ms1000272,iti,,null,img/motor_4.png,70,motor,,,,,,,
501,,179289,HierDyoxlnh4wk,osukwhqswx,ms1000272,motor,,74,img/motor_6.png,74,motor,6,106,1,0,0,,
null,,179397,HierDyoxlnh4wk,osukwhqswx,ms1000272,iti,,null,img/motor_6.png,74,motor,,,,,,,
452,,179864,HierDyoxlnh4wk,osukwhqswx,ms1000272,motor,,65,img/motor_1.png,65,motor,1,107,1,0,0,,
null,,179979,HierDyoxlnh4wk,osukwhqswx,ms1000272,iti,,null,img/motor_1.png,65,motor,,,,,,,
493,,180487,HierDyoxlnh4wk,osukwhqswx,ms1000272,motor,,68,img/motor_3.png,68,motor,3,108,1,0,0,,
null,,180603,HierDyoxlnh4wk,osukwhqswx,ms1000272,iti,,null,img/motor_3.png,68,motor,,,,,,,
453,,181072,HierDyoxlnh4wk,osukwhqswx,ms1000272,motor,,65,img/motor_1.png,65,motor,1,109,1,0,0,,
null,,181188,HierDyoxlnh4wk,osukwhqswx,ms1000272,iti,,null,img/motor_1.png,65,motor,,,,,,,
452,,181656,HierDyoxlnh4wk,osukwhqswx,ms1000272,motor,,76,img/motor_8.png,76,motor,8,110,1,0,0,,
null,,181772,HierDyoxlnh4wk,osukwhqswx,ms1000272,iti,,null,img/motor_8.png,76,motor,,,,,,,
460,,182248,HierDyoxlnh4wk,osukwhqswx,ms1000272,motor,,75,img/motor_7.png,75,motor,7,111,1,0,0,,
null,,182363,HierDyoxlnh4wk,osukwhqswx,ms1000272,iti,,null,img/motor_7.png,75,motor,,,,,,,
620,,182993,HierDyoxlnh4wk,osukwhqswx,ms1000272,motor,,68,img/motor_3.png,68,motor,3,112,1,0,0,,
null,,183108,HierDyoxlnh4wk,osukwhqswx,ms1000272,iti,,null,img/motor_3.png,68,motor,,,,,,,
540,,183658,HierDyoxlnh4wk,osukwhqswx,ms1000272,motor,,70,img/motor_4.png,70,motor,4,113,1,0,0,,
null,,183772,HierDyoxlnh4wk,osukwhqswx,ms1000272,iti,,null,img/motor_4.png,70,motor,,,,,,,
556,,184344,HierDyoxlnh4wk,osukwhqswx,ms1000272,motor,,83,img/motor_2.png,83,motor,2,114,1,0,0,,
null,,184459,HierDyoxlnh4wk,osukwhqswx,ms1000272,iti,,null,img/motor_2.png,83,motor,,,,,,,
517,,184992,HierDyoxlnh4wk,osukwhqswx,ms1000272,motor,,75,img/motor_7.png,75,motor,7,115,1,0,0,,
null,,185107,HierDyoxlnh4wk,osukwhqswx,ms1000272,iti,,null,img/motor_7.png,75,motor,,,,,,,
422,,185537,HierDyoxlnh4wk,osukwhqswx,ms1000272,motor,,75,img/motor_7.png,75,motor,7,116,1,0,0,,
null,,185652,HierDyoxlnh4wk,osukwhqswx,ms1000272,iti,,null,img/motor_7.png,75,motor,,,,,,,
564,,186232,HierDyoxlnh4wk,osukwhqswx,ms1000272,motor,,83,img/motor_2.png,83,motor,2,117,1,0,0,,
null,,186340,HierDyoxlnh4wk,osukwhqswx,ms1000272,iti,,null,img/motor_2.png,83,motor,,,,,,,
461,,186816,HierDyoxlnh4wk,osukwhqswx,ms1000272,motor,,72,img/motor_5.png,72,motor,5,118,1,0,0,,
null,,186930,HierDyoxlnh4wk,osukwhqswx,ms1000272,iti,,null,img/motor_5.png,72,motor,,,,,,,
526,,187466,HierDyoxlnh4wk,osukwhqswx,ms1000272,motor,,83,img/motor_2.png,83,motor,2,119,1,0,0,,
null,,187580,HierDyoxlnh4wk,osukwhqswx,ms1000272,iti,,null,img/motor_2.png,83,motor,,,,,,,
444,,188033,HierDyoxlnh4wk,osukwhqswx,ms1000272,motor,,70,img/motor_4.png,70,motor,4,120,1,0,0,,
null,,188148,HierDyoxlnh4wk,osukwhqswx,ms1000272,iti,,null,img/motor_4.png,70,motor,,,,,,,
428,,188586,HierDyoxlnh4wk,osukwhqswx,ms1000272,motor,,75,img/motor_6.png,74,motor,6,121,0,1,0,,
311,,188906,HierDyoxlnh4wk,osukwhqswx,ms1000272,motorRepeat,,74,img/motor_6.png,74,motor,6,121,1,0,0,,
null,,189021,HierDyoxlnh4wk,osukwhqswx,ms1000272,iti,,null,img/motor_6.png,74,motor,,,,,,,
668,,189697,HierDyoxlnh4wk,osukwhqswx,ms1000272,motor,,83,img/motor_2.png,83,motor,2,122,1,0,0,,
null,,189806,HierDyoxlnh4wk,osukwhqswx,ms1000272,iti,,null,img/motor_2.png,83,motor,,,,,,,
492,,190305,HierDyoxlnh4wk,osukwhqswx,ms1000272,motor,,76,img/motor_7.png,75,motor,7,123,0,1,0,,
312,,190632,HierDyoxlnh4wk,osukwhqswx,ms1000272,motorRepeat,,75,img/motor_7.png,75,motor,7,123,1,0,0,,
null,,190741,HierDyoxlnh4wk,osukwhqswx,ms1000272,iti,,null,img/motor_7.png,75,motor,,,,,,,
740,,191489,HierDyoxlnh4wk,osukwhqswx,ms1000272,motor,,70,img/motor_4.png,70,motor,4,124,1,0,0,,
null,,191603,HierDyoxlnh4wk,osukwhqswx,ms1000272,iti,,null,img/motor_4.png,70,motor,,,,,,,
509,,192128,HierDyoxlnh4wk,osukwhqswx,ms1000272,motor,,83,img/motor_2.png,83,motor,2,125,1,0,0,,
null,,192243,HierDyoxlnh4wk,osukwhqswx,ms1000272,iti,,null,img/motor_2.png,83,motor,,,,,,,
518,,192770,HierDyoxlnh4wk,osukwhqswx,ms1000272,motor,,72,img/motor_5.png,72,motor,5,126,1,0,0,,
null,,192884,HierDyoxlnh4wk,osukwhqswx,ms1000272,iti,,null,img/motor_5.png,72,motor,,,,,,,
476,,193376,HierDyoxlnh4wk,osukwhqswx,ms1000272,motor,,75,img/motor_7.png,75,motor,7,127,1,0,0,,
null,,193491,HierDyoxlnh4wk,osukwhqswx,ms1000272,iti,,null,img/motor_7.png,75,motor,,,,,,,
405,,193912,HierDyoxlnh4wk,osukwhqswx,ms1000272,motor,,76,img/motor_8.png,76,motor,8,128,1,0,0,,
null,,194027,HierDyoxlnh4wk,osukwhqswx,ms1000272,iti,,null,img/motor_8.png,76,motor,,,,,,,
501,,194543,HierDyoxlnh4wk,osukwhqswx,ms1000272,motor,,74,img/motor_6.png,74,motor,6,129,1,0,0,,
null,,194653,HierDyoxlnh4wk,osukwhqswx,ms1000272,iti,,null,img/motor_6.png,74,motor,,,,,,,
412,,195073,HierDyoxlnh4wk,osukwhqswx,ms1000272,motor,,74,img/motor_6.png,74,motor,6,130,1,0,0,,
null,,195182,HierDyoxlnh4wk,osukwhqswx,ms1000272,iti,,null,img/motor_6.png,74,motor,,,,,,,
483,,195680,HierDyoxlnh4wk,osukwhqswx,ms1000272,motor,,75,img/motor_7.png,75,motor,7,131,1,0,0,,
null,,195789,HierDyoxlnh4wk,osukwhqswx,ms1000272,iti,,null,img/motor_7.png,75,motor,,,,,,,
484,,196289,HierDyoxlnh4wk,osukwhqswx,ms1000272,motor,,83,img/motor_2.png,83,motor,2,132,1,0,0,,
null,,196397,HierDyoxlnh4wk,osukwhqswx,ms1000272,iti,,null,img/motor_2.png,83,motor,,,,,,,
404,,196809,HierDyoxlnh4wk,osukwhqswx,ms1000272,motor,,83,img/motor_2.png,83,motor,2,133,1,0,0,,
null,,196924,HierDyoxlnh4wk,osukwhqswx,ms1000272,iti,,null,img/motor_2.png,83,motor,,,,,,,
444,,197380,HierDyoxlnh4wk,osukwhqswx,ms1000272,motor,,70,img/motor_4.png,70,motor,4,134,1,0,0,,
null,,197489,HierDyoxlnh4wk,osukwhqswx,ms1000272,iti,,null,img/motor_4.png,70,motor,,,,,,,
456,,197961,HierDyoxlnh4wk,osukwhqswx,ms1000272,motor,,76,img/motor_8.png,76,motor,8,135,1,0,0,,
null,,198071,HierDyoxlnh4wk,osukwhqswx,ms1000272,iti,,null,img/motor_8.png,76,motor,,,,,,,
514,,198594,HierDyoxlnh4wk,osukwhqswx,ms1000272,motor,,83,img/motor_2.png,83,motor,2,136,1,0,0,,
null,,198710,HierDyoxlnh4wk,osukwhqswx,ms1000272,iti,,null,img/motor_2.png,83,motor,,,,,,,
411,,199136,HierDyoxlnh4wk,osukwhqswx,ms1000272,motor,,70,img/motor_4.png,70,motor,4,137,1,0,0,,
null,,199252,HierDyoxlnh4wk,osukwhqswx,ms1000272,iti,,null,img/motor_4.png,70,motor,,,,,,,
453,,199720,HierDyoxlnh4wk,osukwhqswx,ms1000272,motor,,75,img/motor_7.png,75,motor,7,138,1,0,0,,
null,,199836,HierDyoxlnh4wk,osukwhqswx,ms1000272,iti,,null,img/motor_7.png,75,motor,,,,,,,
492,,200338,HierDyoxlnh4wk,osukwhqswx,ms1000272,motor,,74,img/motor_6.png,74,motor,6,139,1,0,0,,
null,,200446,HierDyoxlnh4wk,osukwhqswx,ms1000272,iti,,null,img/motor_6.png,74,motor,,,,,,,
491,,200946,HierDyoxlnh4wk,osukwhqswx,ms1000272,motor,,83,img/motor_2.png,83,motor,2,140,1,0,0,,
null,,201054,HierDyoxlnh4wk,osukwhqswx,ms1000272,iti,,null,img/motor_2.png,83,motor,,,,,,,
716,,201784,HierDyoxlnh4wk,osukwhqswx,ms1000272,motor,,65,img/motor_1.png,65,motor,1,141,1,0,0,,
null,,201900,HierDyoxlnh4wk,osukwhqswx,ms1000272,iti,,null,img/motor_1.png,65,motor,,,,,,,
581,,202490,HierDyoxlnh4wk,osukwhqswx,ms1000272,motor,,83,img/motor_2.png,83,motor,2,142,1,0,0,,
null,,202597,HierDyoxlnh4wk,osukwhqswx,ms1000272,iti,,null,img/motor_2.png,83,motor,,,,,,,
731,,203337,HierDyoxlnh4wk,osukwhqswx,ms1000272,motor,,68,img/motor_4.png,70,motor,4,143,0,1,0,,
351,,203697,HierDyoxlnh4wk,osukwhqswx,ms1000272,motorRepeat,,70,img/motor_4.png,70,motor,4,143,1,0,0,,
null,,203806,HierDyoxlnh4wk,osukwhqswx,ms1000272,iti,,null,img/motor_4.png,70,motor,,,,,,,
514,,204330,HierDyoxlnh4wk,osukwhqswx,ms1000272,motor,,65,img/motor_1.png,65,motor,1,144,1,0,0,,
null,,204445,HierDyoxlnh4wk,osukwhqswx,ms1000272,iti,,null,img/motor_1.png,65,motor,,,,,,,
588,,205042,HierDyoxlnh4wk,osukwhqswx,ms1000272,motor,,74,img/motor_6.png,74,motor,6,145,1,0,0,,
null,,205157,HierDyoxlnh4wk,osukwhqswx,ms1000272,iti,,null,img/motor_6.png,74,motor,,,,,,,
388,,205560,HierDyoxlnh4wk,osukwhqswx,ms1000272,motor,,74,img/motor_6.png,74,motor,6,146,1,0,0,,
null,,205676,HierDyoxlnh4wk,osukwhqswx,ms1000272,iti,,null,img/motor_6.png,74,motor,,,,,,,
781,,206471,HierDyoxlnh4wk,osukwhqswx,ms1000272,motor,,83,img/motor_1.png,65,motor,1,147,0,1,0,,
297,,206777,HierDyoxlnh4wk,osukwhqswx,ms1000272,motorRepeat,,65,img/motor_1.png,65,motor,1,147,1,0,0,,
null,,206886,HierDyoxlnh4wk,osukwhqswx,ms1000272,iti,,null,img/motor_1.png,65,motor,,,,,,,
483,,207384,HierDyoxlnh4wk,osukwhqswx,ms1000272,motor,,70,img/motor_4.png,70,motor,4,148,1,0,0,,
null,,207492,HierDyoxlnh4wk,osukwhqswx,ms1000272,iti,,null,img/motor_4.png,70,motor,,,,,,,
437,,207944,HierDyoxlnh4wk,osukwhqswx,ms1000272,motor,,76,img/motor_8.png,76,motor,8,149,1,0,0,,
null,,208059,HierDyoxlnh4wk,osukwhqswx,ms1000272,iti,,null,img/motor_8.png,76,motor,,,,,,,
518,,208585,HierDyoxlnh4wk,osukwhqswx,ms1000272,motor,,70,img/motor_4.png,70,motor,4,150,1,0,0,,
null,,208694,HierDyoxlnh4wk,osukwhqswx,ms1000272,iti,,null,img/motor_4.png,70,motor,,,,,,,
507,,209217,HierDyoxlnh4wk,osukwhqswx,ms1000272,motor,,68,img/motor_3.png,68,motor,3,151,1,0,0,,
null,,209332,HierDyoxlnh4wk,osukwhqswx,ms1000272,iti,,null,img/motor_3.png,68,motor,,,,,,,
453,,209800,HierDyoxlnh4wk,osukwhqswx,ms1000272,motor,,65,img/motor_1.png,65,motor,1,152,1,0,0,,
null,,209916,HierDyoxlnh4wk,osukwhqswx,ms1000272,iti,,null,img/motor_1.png,65,motor,,,,,,,
605,,210530,HierDyoxlnh4wk,osukwhqswx,ms1000272,motor,,74,img/motor_6.png,74,motor,6,153,1,0,0,,
null,,210645,HierDyoxlnh4wk,osukwhqswx,ms1000272,iti,,null,img/motor_6.png,74,motor,,,,,,,
605,,211265,HierDyoxlnh4wk,osukwhqswx,ms1000272,motor,,68,img/motor_3.png,68,motor,3,154,1,0,0,,
null,,211379,HierDyoxlnh4wk,osukwhqswx,ms1000272,iti,,null,img/motor_3.png,68,motor,,,,,,,
438,,211832,HierDyoxlnh4wk,osukwhqswx,ms1000272,motor,,65,img/motor_1.png,65,motor,1,155,1,0,0,,
null,,211947,HierDyoxlnh4wk,osukwhqswx,ms1000272,iti,,null,img/motor_1.png,65,motor,,,,,,,
469,,212433,HierDyoxlnh4wk,osukwhqswx,ms1000272,motor,,74,img/motor_6.png,74,motor,6,156,1,0,0,,
null,,212542,HierDyoxlnh4wk,osukwhqswx,ms1000272,iti,,null,img/motor_6.png,74,motor,,,,,,,
531,,213088,HierDyoxlnh4wk,osukwhqswx,ms1000272,motor,,68,img/motor_3.png,68,motor,3,157,1,0,0,,
null,,213205,HierDyoxlnh4wk,osukwhqswx,ms1000272,iti,,null,img/motor_3.png,68,motor,,,,,,,
461,,213673,HierDyoxlnh4wk,osukwhqswx,ms1000272,motor,,76,img/motor_8.png,76,motor,8,158,1,0,0,,
null,,213782,HierDyoxlnh4wk,osukwhqswx,ms1000272,iti,,null,img/motor_8.png,76,motor,,,,,,,
499,,214296,HierDyoxlnh4wk,osukwhqswx,ms1000272,motor,,72,img/motor_5.png,72,motor,5,159,1,0,0,,
null,,214405,HierDyoxlnh4wk,osukwhqswx,ms1000272,iti,,null,img/motor_5.png,72,motor,,,,,,,
500,,214914,HierDyoxlnh4wk,osukwhqswx,ms1000272,motor,,68,img/motor_3.png,68,motor,3,160,1,0,0,,
null,,215030,HierDyoxlnh4wk,osukwhqswx,ms1000272,iti,,null,img/motor_3.png,68,motor,,,,,,,
523,,215567,HierDyoxlnh4wk,osukwhqswx,ms1000272,motor,,72,img/motor_5.png,72,motor,5,161,1,0,0,,
null,,215684,HierDyoxlnh4wk,osukwhqswx,ms1000272,iti,,null,img/motor_5.png,72,motor,,,,,,,
428,,216128,HierDyoxlnh4wk,osukwhqswx,ms1000272,motor,,72,img/motor_5.png,72,motor,5,162,1,0,0,,
null,,216244,HierDyoxlnh4wk,osukwhqswx,ms1000272,iti,,null,img/motor_5.png,72,motor,,,,,,,
395,,216649,HierDyoxlnh4wk,osukwhqswx,ms1000272,motor,,74,img/motor_6.png,74,motor,6,163,1,0,0,,
null,,216765,HierDyoxlnh4wk,osukwhqswx,ms1000272,iti,,null,img/motor_6.png,74,motor,,,,,,,
508,,217281,HierDyoxlnh4wk,osukwhqswx,ms1000272,motor,,65,img/motor_1.png,65,motor,1,164,1,0,0,,
null,,217397,HierDyoxlnh4wk,osukwhqswx,ms1000272,iti,,null,img/motor_1.png,65,motor,,,,,,,
628,,218033,HierDyoxlnh4wk,osukwhqswx,ms1000272,motor,,83,img/motor_2.png,83,motor,2,165,1,0,0,,
null,,218142,HierDyoxlnh4wk,osukwhqswx,ms1000272,iti,,null,img/motor_2.png,83,motor,,,,,,,
507,,218664,HierDyoxlnh4wk,osukwhqswx,ms1000272,motor,,72,img/motor_5.png,72,motor,5,166,1,0,0,,
null,,218773,HierDyoxlnh4wk,osukwhqswx,ms1000272,iti,,null,img/motor_5.png,72,motor,,,,,,,
516,,219304,HierDyoxlnh4wk,osukwhqswx,ms1000272,motor,,65,img/motor_1.png,65,motor,1,167,1,0,0,,
null,,219413,HierDyoxlnh4wk,osukwhqswx,ms1000272,iti,,null,img/motor_1.png,65,motor,,,,,,,
429,,219849,HierDyoxlnh4wk,osukwhqswx,ms1000272,motor,,65,img/motor_1.png,65,motor,1,168,1,0,0,,
null,,219958,HierDyoxlnh4wk,osukwhqswx,ms1000272,iti,,null,img/motor_1.png,65,motor,,,,,,,
460,,220433,HierDyoxlnh4wk,osukwhqswx,ms1000272,motor,,70,img/motor_4.png,70,motor,4,169,1,0,0,,
null,,220548,HierDyoxlnh4wk,osukwhqswx,ms1000272,iti,,null,img/motor_4.png,70,motor,,,,,,,
661,,221218,HierDyoxlnh4wk,osukwhqswx,ms1000272,motor,,75,img/motor_7.png,75,motor,7,170,1,0,0,,
null,,221326,HierDyoxlnh4wk,osukwhqswx,ms1000272,iti,,null,img/motor_7.png,75,motor,,,,,,,
451,,221786,HierDyoxlnh4wk,osukwhqswx,ms1000272,motor,,74,img/motor_6.png,74,motor,6,171,1,0,0,,
null,,221900,HierDyoxlnh4wk,osukwhqswx,ms1000272,iti,,null,img/motor_6.png,74,motor,,,,,,,
454,,222368,HierDyoxlnh4wk,osukwhqswx,ms1000272,motor,,72,img/motor_5.png,72,motor,5,172,1,0,0,,
null,,222477,HierDyoxlnh4wk,osukwhqswx,ms1000272,iti,,null,img/motor_5.png,72,motor,,,,,,,
500,,222993,HierDyoxlnh4wk,osukwhqswx,ms1000272,motor,,83,img/motor_2.png,83,motor,2,173,1,0,0,,
null,,223101,HierDyoxlnh4wk,osukwhqswx,ms1000272,iti,,null,img/motor_2.png,83,motor,,,,,,,
532,,223642,HierDyoxlnh4wk,osukwhqswx,ms1000272,motor,,74,img/motor_6.png,74,motor,6,174,1,0,0,,
null,,223757,HierDyoxlnh4wk,osukwhqswx,ms1000272,iti,,null,img/motor_6.png,74,motor,,,,,,,
509,,224274,HierDyoxlnh4wk,osukwhqswx,ms1000272,motor,,75,img/motor_7.png,75,motor,7,175,1,0,0,,
null,,224389,HierDyoxlnh4wk,osukwhqswx,ms1000272,iti,,null,img/motor_7.png,75,motor,,,,,,,
413,,224817,HierDyoxlnh4wk,osukwhqswx,ms1000272,motor,,76,img/motor_8.png,76,motor,8,176,1,0,0,,
null,,224926,HierDyoxlnh4wk,osukwhqswx,ms1000272,iti,,null,img/motor_8.png,76,motor,,,,,,,
548,,225482,HierDyoxlnh4wk,osukwhqswx,ms1000272,motor,,75,img/motor_7.png,75,motor,7,177,1,0,0,,
null,,225597,HierDyoxlnh4wk,osukwhqswx,ms1000272,iti,,null,img/motor_7.png,75,motor,,,,,,,
500,,226106,HierDyoxlnh4wk,osukwhqswx,ms1000272,motor,,70,img/motor_4.png,70,motor,4,178,1,0,0,,
null,,226221,HierDyoxlnh4wk,osukwhqswx,ms1000272,iti,,null,img/motor_4.png,70,motor,,,,,,,
460,,226689,HierDyoxlnh4wk,osukwhqswx,ms1000272,motor,,72,img/motor_5.png,72,motor,5,179,1,0,0,,
null,,226804,HierDyoxlnh4wk,osukwhqswx,ms1000272,iti,,null,img/motor_5.png,72,motor,,,,,,,
524,,227344,HierDyoxlnh4wk,osukwhqswx,ms1000272,motor,,65,img/motor_1.png,65,motor,1,180,1,0,0,,
null,,227454,HierDyoxlnh4wk,osukwhqswx,ms1000272,iti,,null,img/motor_1.png,65,motor,,,,,,,
867,,228330,HierDyoxlnh4wk,osukwhqswx,ms1000272,motor,,75,img/motor_7.png,75,motor,7,181,1,0,0,,
null,,228438,HierDyoxlnh4wk,osukwhqswx,ms1000272,iti,,null,img/motor_7.png,75,motor,,,,,,,
834,,229288,HierDyoxlnh4wk,osukwhqswx,ms1000272,motor,,74,img/motor_6.png,74,motor,6,182,1,0,0,,
null,,229404,HierDyoxlnh4wk,osukwhqswx,ms1000272,iti,,null,img/motor_6.png,74,motor,,,,,,,
395,,229817,HierDyoxlnh4wk,osukwhqswx,ms1000272,motor,,75,img/motor_7.png,75,motor,7,183,1,0,0,,
null,,229926,HierDyoxlnh4wk,osukwhqswx,ms1000272,iti,,null,img/motor_7.png,75,motor,,,,,,,
533,,230465,HierDyoxlnh4wk,osukwhqswx,ms1000272,motor,,72,img/motor_5.png,72,motor,5,184,1,0,0,,
null,,230580,HierDyoxlnh4wk,osukwhqswx,ms1000272,iti,,null,img/motor_5.png,72,motor,,,,,,,
422,,231016,HierDyoxlnh4wk,osukwhqswx,ms1000272,motor,,76,img/motor_8.png,76,motor,8,185,1,0,0,,
null,,231131,HierDyoxlnh4wk,osukwhqswx,ms1000272,iti,,null,img/motor_8.png,76,motor,,,,,,,
405,,231546,HierDyoxlnh4wk,osukwhqswx,ms1000272,motor,,76,img/motor_8.png,76,motor,8,186,1,0,0,,
null,,231661,HierDyoxlnh4wk,osukwhqswx,ms1000272,iti,,null,img/motor_8.png,76,motor,,,,,,,
547,,232217,HierDyoxlnh4wk,osukwhqswx,ms1000272,motor,,83,img/motor_2.png,83,motor,2,187,1,0,0,,
null,,232332,HierDyoxlnh4wk,osukwhqswx,ms1000272,iti,,null,img/motor_2.png,83,motor,,,,,,,
541,,232882,HierDyoxlnh4wk,osukwhqswx,ms1000272,motor,,75,img/motor_7.png,75,motor,7,188,1,0,0,,
null,,232997,HierDyoxlnh4wk,osukwhqswx,ms1000272,iti,,null,img/motor_7.png,75,motor,,,,,,,
467,,233480,HierDyoxlnh4wk,osukwhqswx,ms1000272,motor,,83,img/motor_2.png,83,motor,2,189,1,0,0,,
null,,233596,HierDyoxlnh4wk,osukwhqswx,ms1000272,iti,,null,img/motor_2.png,83,motor,,,,,,,
453,,234064,HierDyoxlnh4wk,osukwhqswx,ms1000272,motor,,70,img/motor_4.png,70,motor,4,190,1,0,0,,
null,,234179,HierDyoxlnh4wk,osukwhqswx,ms1000272,iti,,null,img/motor_4.png,70,motor,,,,,,,
494,,234682,HierDyoxlnh4wk,osukwhqswx,ms1000272,motor,,65,img/motor_1.png,65,motor,1,191,1,0,0,,
null,,234790,HierDyoxlnh4wk,osukwhqswx,ms1000272,iti,,null,img/motor_1.png,65,motor,,,,,,,
596,,235394,HierDyoxlnh4wk,osukwhqswx,ms1000272,motor,,74,img/motor_6.png,74,motor,6,192,1,0,0,,
null,,235508,HierDyoxlnh4wk,osukwhqswx,ms1000272,iti,,null,img/motor_6.png,74,motor,,,,,,,
412,,235930,HierDyoxlnh4wk,osukwhqswx,ms1000272,motor,,76,img/motor_8.png,76,motor,8,193,1,0,0,,
null,,236038,HierDyoxlnh4wk,osukwhqswx,ms1000272,iti,,null,img/motor_8.png,76,motor,,,,,,,
476,,236528,HierDyoxlnh4wk,osukwhqswx,ms1000272,motor,,70,img/motor_3.png,68,motor,3,194,0,1,0,,
273,,236817,HierDyoxlnh4wk,osukwhqswx,ms1000272,motorRepeat,,68,img/motor_3.png,68,motor,3,194,1,0,0,,
null,,236926,HierDyoxlnh4wk,osukwhqswx,ms1000272,iti,,null,img/motor_3.png,68,motor,,,,,,,
636,,237576,HierDyoxlnh4wk,osukwhqswx,ms1000272,motor,,74,img/motor_6.png,74,motor,6,195,1,0,0,,
null,,237692,HierDyoxlnh4wk,osukwhqswx,ms1000272,iti,,null,img/motor_6.png,74,motor,,,,,,,
516,,238224,HierDyoxlnh4wk,osukwhqswx,ms1000272,motor,,72,img/motor_5.png,72,motor,5,196,1,0,0,,
null,,238333,HierDyoxlnh4wk,osukwhqswx,ms1000272,iti,,null,img/motor_5.png,72,motor,,,,,,,
429,,238777,HierDyoxlnh4wk,osukwhqswx,ms1000272,motor,,74,img/motor_6.png,74,motor,6,197,1,0,0,,
null,,238885,HierDyoxlnh4wk,osukwhqswx,ms1000272,iti,,null,img/motor_6.png,74,motor,,,,,,,
389,,239288,HierDyoxlnh4wk,osukwhqswx,ms1000272,motor,,76,img/motor_8.png,76,motor,8,198,1,0,0,,
null,,239404,HierDyoxlnh4wk,osukwhqswx,ms1000272,iti,,null,img/motor_8.png,76,motor,,,,,,,
478,,239897,HierDyoxlnh4wk,osukwhqswx,ms1000272,motor,,65,img/motor_1.png,65,motor,1,199,1,0,0,,
null,,240013,HierDyoxlnh4wk,osukwhqswx,ms1000272,iti,,null,img/motor_1.png,65,motor,,,,,,,
629,,240657,HierDyoxlnh4wk,osukwhqswx,ms1000272,motor,,75,img/motor_7.png,75,motor,7,200,1,0,0,,
null,,240773,HierDyoxlnh4wk,osukwhqswx,ms1000272,iti,,null,img/motor_7.png,75,motor,,,,,,,
389,,241176,HierDyoxlnh4wk,osukwhqswx,ms1000272,motor,,76,img/motor_8.png,76,motor,8,201,1,0,0,,
null,,241292,HierDyoxlnh4wk,osukwhqswx,ms1000272,iti,,null,img/motor_8.png,76,motor,,,,,,,
453,,241761,HierDyoxlnh4wk,osukwhqswx,ms1000272,motor,,74,img/motor_7.png,75,motor,7,202,0,1,0,,
264,,242040,HierDyoxlnh4wk,osukwhqswx,ms1000272,motorRepeat,,75,img/motor_7.png,75,motor,7,202,1,0,0,,
null,,242150,HierDyoxlnh4wk,osukwhqswx,ms1000272,iti,,null,img/motor_7.png,75,motor,,,,,,,
379,,242538,HierDyoxlnh4wk,osukwhqswx,ms1000272,motor,,75,img/motor_7.png,75,motor,7,203,1,0,0,,
null,,242647,HierDyoxlnh4wk,osukwhqswx,ms1000272,iti,,null,img/motor_7.png,75,motor,,,,,,,
507,,243162,HierDyoxlnh4wk,osukwhqswx,ms1000272,motor,,65,img/motor_1.png,65,motor,1,204,1,0,0,,
null,,243277,HierDyoxlnh4wk,osukwhqswx,ms1000272,iti,,null,img/motor_1.png,65,motor,,,,,,,
356,,243641,HierDyoxlnh4wk,osukwhqswx,ms1000272,motor,,65,img/motor_1.png,65,motor,1,205,1,0,0,,
null,,243750,HierDyoxlnh4wk,osukwhqswx,ms1000272,iti,,null,img/motor_1.png,65,motor,,,,,,,
555,,244313,HierDyoxlnh4wk,osukwhqswx,ms1000272,motor,,75,img/motor_6.png,74,motor,6,206,0,1,0,,
216,,244538,HierDyoxlnh4wk,osukwhqswx,ms1000272,motorRepeat,,74,img/motor_6.png,74,motor,6,206,1,0,0,,
null,,244653,HierDyoxlnh4wk,osukwhqswx,ms1000272,iti,,null,img/motor_6.png,74,motor,,,,,,,
389,,245057,HierDyoxlnh4wk,osukwhqswx,ms1000272,motor,,76,img/motor_8.png,76,motor,8,207,1,0,0,,
null,,245172,HierDyoxlnh4wk,osukwhqswx,ms1000272,iti,,null,img/motor_8.png,76,motor,,,,,,,
397,,245584,HierDyoxlnh4wk,osukwhqswx,ms1000272,motor,,74,img/motor_6.png,74,motor,6,208,1,0,0,,
null,,245701,HierDyoxlnh4wk,osukwhqswx,ms1000272,iti,,null,img/motor_6.png,74,motor,,,,,,,
493,,246208,HierDyoxlnh4wk,osukwhqswx,ms1000272,motor,,75,img/motor_7.png,75,motor,7,209,1,0,0,,
null,,246318,HierDyoxlnh4wk,osukwhqswx,ms1000272,iti,,null,img/motor_7.png,75,motor,,,,,,,
508,,246834,HierDyoxlnh4wk,osukwhqswx,ms1000272,motor,,65,img/motor_1.png,65,motor,1,210,1,0,0,,
null,,246942,HierDyoxlnh4wk,osukwhqswx,ms1000272,iti,,null,img/motor_1.png,65,motor,,,,,,,
747,,247698,HierDyoxlnh4wk,osukwhqswx,ms1000272,motor,,74,img/motor_6.png,74,motor,6,211,1,0,0,,
null,,247813,HierDyoxlnh4wk,osukwhqswx,ms1000272,iti,,null,img/motor_6.png,74,motor,,,,,,,
1051,,248880,HierDyoxlnh4wk,osukwhqswx,ms1000272,motor,,70,img/motor_4.png,70,motor,4,212,1,0,0,,
null,,248989,HierDyoxlnh4wk,osukwhqswx,ms1000272,iti,,null,img/motor_4.png,70,motor,,,,,,,
1717,,250721,HierDyoxlnh4wk,osukwhqswx,ms1000272,motor,,72,img/motor_5.png,72,motor,5,213,1,0,0,,
null,,250836,HierDyoxlnh4wk,osukwhqswx,ms1000272,iti,,null,img/motor_5.png,72,motor,,,,,,,
388,,251234,HierDyoxlnh4wk,osukwhqswx,ms1000272,motor,,72,img/motor_5.png,72,motor,5,214,1,0,0,,
null,,251349,HierDyoxlnh4wk,osukwhqswx,ms1000272,iti,,null,img/motor_5.png,72,motor,,,,,,,
787,,252146,HierDyoxlnh4wk,osukwhqswx,ms1000272,motor,,68,img/motor_4.png,70,motor,4,215,0,1,0,,
239,,252400,HierDyoxlnh4wk,osukwhqswx,ms1000272,motorRepeat,,70,img/motor_4.png,70,motor,4,215,1,0,0,,
null,,252516,HierDyoxlnh4wk,osukwhqswx,ms1000272,iti,,null,img/motor_4.png,70,motor,,,,,,,
397,,252929,HierDyoxlnh4wk,osukwhqswx,ms1000272,motor,,70,img/motor_4.png,70,motor,4,216,1,0,0,,
null,,253044,HierDyoxlnh4wk,osukwhqswx,ms1000272,iti,,null,img/motor_4.png,70,motor,,,,,,,
621,,253674,HierDyoxlnh4wk,osukwhqswx,ms1000272,motor,,75,img/motor_7.png,75,motor,7,217,1,0,0,,
null,,253783,HierDyoxlnh4wk,osukwhqswx,ms1000272,iti,,null,img/motor_7.png,75,motor,,,,,,,
490,,254289,HierDyoxlnh4wk,osukwhqswx,ms1000272,motor,,70,img/motor_4.png,70,motor,4,218,1,0,0,,
null,,254399,HierDyoxlnh4wk,osukwhqswx,ms1000272,iti,,null,img/motor_4.png,70,motor,,,,,,,
507,,254921,HierDyoxlnh4wk,osukwhqswx,ms1000272,motor,,74,img/motor_7.png,75,motor,7,219,0,1,0,,
24,,254958,HierDyoxlnh4wk,osukwhqswx,ms1000272,motorRepeat,,75,img/motor_7.png,75,motor,7,219,1,0,0,,
null,,255067,HierDyoxlnh4wk,osukwhqswx,ms1000272,iti,,null,img/motor_7.png,75,motor,,,,,,,
62,,255144,HierDyoxlnh4wk,osukwhqswx,ms1000272,motor,,75,img/motor_7.png,75,motor,7,220,1,0,0,,
null,,255260,HierDyoxlnh4wk,osukwhqswx,ms1000272,iti,,null,img/motor_7.png,75,motor,,,,,,,
1054,,256322,HierDyoxlnh4wk,osukwhqswx,ms1000272,motor,,83,img/motor_2.png,83,motor,2,221,1,0,0,,
null,,256437,HierDyoxlnh4wk,osukwhqswx,ms1000272,iti,,null,img/motor_2.png,83,motor,,,,,,,
468,,256914,HierDyoxlnh4wk,osukwhqswx,ms1000272,motor,,70,img/motor_4.png,70,motor,4,222,1,0,0,,
null,,257022,HierDyoxlnh4wk,osukwhqswx,ms1000272,iti,,null,img/motor_4.png,70,motor,,,,,,,
484,,257514,HierDyoxlnh4wk,osukwhqswx,ms1000272,motor,,68,img/motor_3.png,68,motor,3,223,1,0,0,,
null,,257623,HierDyoxlnh4wk,osukwhqswx,ms1000272,iti,,null,img/motor_3.png,68,motor,,,,,,,
506,,258144,HierDyoxlnh4wk,osukwhqswx,ms1000272,motor,,75,img/motor_7.png,75,motor,7,224,1,0,0,,
null,,258253,HierDyoxlnh4wk,osukwhqswx,ms1000272,iti,,null,img/motor_7.png,75,motor,,,,,,,
437,,258698,HierDyoxlnh4wk,osukwhqswx,ms1000272,motor,,76,img/motor_8.png,76,motor,8,225,1,0,0,,
null,,258814,HierDyoxlnh4wk,osukwhqswx,ms1000272,iti,,null,img/motor_8.png,76,motor,,,,,,,
451,,259275,HierDyoxlnh4wk,osukwhqswx,ms1000272,motor,,75,img/motor_7.png,75,motor,7,226,1,0,0,,
null,,259390,HierDyoxlnh4wk,osukwhqswx,ms1000272,iti,,null,img/motor_7.png,75,motor,,,,,,,
412,,259817,HierDyoxlnh4wk,osukwhqswx,ms1000272,motor,,75,img/motor_7.png,75,motor,7,227,1,0,0,,
null,,259932,HierDyoxlnh4wk,osukwhqswx,ms1000272,iti,,null,img/motor_7.png,75,motor,,,,,,,
468,,260409,HierDyoxlnh4wk,osukwhqswx,ms1000272,motor,,74,img/motor_6.png,74,motor,6,228,1,0,0,,
null,,260517,HierDyoxlnh4wk,osukwhqswx,ms1000272,iti,,null,img/motor_6.png,74,motor,,,,,,,
356,,260883,HierDyoxlnh4wk,osukwhqswx,ms1000272,motor,,74,img/motor_6.png,74,motor,6,229,1,0,0,,
null,,260990,HierDyoxlnh4wk,osukwhqswx,ms1000272,iti,,null,img/motor_6.png,74,motor,,,,,,,
522,,261534,HierDyoxlnh4wk,osukwhqswx,ms1000272,motor,,65,img/motor_1.png,65,motor,1,230,1,0,0,,
null,,261643,HierDyoxlnh4wk,osukwhqswx,ms1000272,iti,,null,img/motor_1.png,65,motor,,,,,,,
694,,262346,HierDyoxlnh4wk,osukwhqswx,ms1000272,motor,,74,img/motor_6.png,74,motor,6,231,1,0,0,,
null,,262455,HierDyoxlnh4wk,osukwhqswx,ms1000272,iti,,null,img/motor_6.png,74,motor,,,,,,,
563,,263027,HierDyoxlnh4wk,osukwhqswx,ms1000272,motor,,68,img/motor_3.png,68,motor,3,232,1,0,0,,
null,,263144,HierDyoxlnh4wk,osukwhqswx,ms1000272,iti,,null,img/motor_3.png,68,motor,,,,,,,
465,,263619,HierDyoxlnh4wk,osukwhqswx,ms1000272,motor,,72,img/motor_5.png,72,motor,5,233,1,0,0,,
null,,263728,HierDyoxlnh4wk,osukwhqswx,ms1000272,iti,,null,img/motor_5.png,72,motor,,,,,,,
467,,264201,HierDyoxlnh4wk,osukwhqswx,ms1000272,motor,,70,img/motor_4.png,70,motor,4,234,1,0,0,,
null,,264310,HierDyoxlnh4wk,osukwhqswx,ms1000272,iti,,null,img/motor_4.png,70,motor,,,,,,,
421,,264745,HierDyoxlnh4wk,osukwhqswx,ms1000272,motor,,76,img/motor_8.png,76,motor,8,235,1,0,0,,
null,,264861,HierDyoxlnh4wk,osukwhqswx,ms1000272,iti,,null,img/motor_8.png,76,motor,,,,,,,
636,,265513,HierDyoxlnh4wk,osukwhqswx,ms1000272,motor,,68,img/motor_3.png,68,motor,3,236,1,0,0,,
null,,265628,HierDyoxlnh4wk,osukwhqswx,ms1000272,iti,,null,img/motor_3.png,68,motor,,,,,,,
453,,266090,HierDyoxlnh4wk,osukwhqswx,ms1000272,motor,,72,img/motor_5.png,72,motor,5,237,1,0,0,,
null,,266205,HierDyoxlnh4wk,osukwhqswx,ms1000272,iti,,null,img/motor_5.png,72,motor,,,,,,,
460,,266680,HierDyoxlnh4wk,osukwhqswx,ms1000272,motor,,74,img/motor_6.png,74,motor,6,238,1,0,0,,
null,,266791,HierDyoxlnh4wk,osukwhqswx,ms1000272,iti,,null,img/motor_6.png,74,motor,,,,,,,
644,,267443,HierDyoxlnh4wk,osukwhqswx,ms1000272,motor,,68,img/motor_3.png,68,motor,3,239,1,0,0,,
null,,267558,HierDyoxlnh4wk,osukwhqswx,ms1000272,iti,,null,img/motor_3.png,68,motor,,,,,,,
771,,268344,HierDyoxlnh4wk,osukwhqswx,ms1000272,motor,,74,img/motor_6.png,74,motor,6,240,1,0,0,,
null,,268455,HierDyoxlnh4wk,osukwhqswx,ms1000272,iti,,null,img/motor_6.png,74,motor,,,,,,,
691,,269155,HierDyoxlnh4wk,osukwhqswx,ms1000272,motor,,83,img/motor_2.png,83,motor,2,241,1,0,0,,
null,,269263,HierDyoxlnh4wk,osukwhqswx,ms1000272,iti,,null,img/motor_2.png,83,motor,,,,,,,
508,,269785,HierDyoxlnh4wk,osukwhqswx,ms1000272,motor,,70,img/motor_4.png,70,motor,4,242,1,0,0,,
null,,269900,HierDyoxlnh4wk,osukwhqswx,ms1000272,iti,,null,img/motor_4.png,70,motor,,,,,,,
381,,270297,HierDyoxlnh4wk,osukwhqswx,ms1000272,motor,,70,img/motor_4.png,70,motor,4,243,1,0,0,,
null,,270413,HierDyoxlnh4wk,osukwhqswx,ms1000272,iti,,null,img/motor_4.png,70,motor,,,,,,,
509,,270930,HierDyoxlnh4wk,osukwhqswx,ms1000272,motor,,68,img/motor_3.png,68,motor,3,244,1,0,0,,
null,,271046,HierDyoxlnh4wk,osukwhqswx,ms1000272,iti,,null,img/motor_3.png,68,motor,,,,,,,
483,,271545,HierDyoxlnh4wk,osukwhqswx,ms1000272,motor,,70,img/motor_4.png,70,motor,4,245,1,0,0,,
null,,271654,HierDyoxlnh4wk,osukwhqswx,ms1000272,iti,,null,img/motor_4.png,70,motor,,,,,,,
764,,272433,HierDyoxlnh4wk,osukwhqswx,ms1000272,motor,,74,img/motor_6.png,74,motor,6,246,1,0,0,,
null,,272549,HierDyoxlnh4wk,osukwhqswx,ms1000272,iti,,null,img/motor_6.png,74,motor,,,,,,,
525,,273090,HierDyoxlnh4wk,osukwhqswx,ms1000272,motor,,65,img/motor_1.png,65,motor,1,247,1,0,0,,
null,,273199,HierDyoxlnh4wk,osukwhqswx,ms1000272,iti,,null,img/motor_1.png,65,motor,,,,,,,
427,,273635,HierDyoxlnh4wk,osukwhqswx,ms1000272,motor,,76,img/motor_8.png,76,motor,8,248,1,0,0,,
null,,273750,HierDyoxlnh4wk,osukwhqswx,ms1000272,iti,,null,img/motor_8.png,76,motor,,,,,,,
659,,274418,HierDyoxlnh4wk,osukwhqswx,ms1000272,motor,,68,img/motor_3.png,68,motor,3,249,1,0,0,,
null,,274527,HierDyoxlnh4wk,osukwhqswx,ms1000272,iti,,null,img/motor_3.png,68,motor,,,,,,,
507,,275049,HierDyoxlnh4wk,osukwhqswx,ms1000272,motor,,75,img/motor_7.png,75,motor,7,250,1,0,0,,
null,,275166,HierDyoxlnh4wk,osukwhqswx,ms1000272,iti,,null,img/motor_7.png,75,motor,,,,,,,
685,,275865,HierDyoxlnh4wk,osukwhqswx,ms1000272,motor,,68,img/motor_3.png,68,motor,3,251,1,0,0,,
null,,275982,HierDyoxlnh4wk,osukwhqswx,ms1000272,iti,,null,img/motor_3.png,68,motor,,,,,,,
628,,276625,HierDyoxlnh4wk,osukwhqswx,ms1000272,motor,,83,img/motor_2.png,83,motor,2,252,1,0,0,,
null,,276734,HierDyoxlnh4wk,osukwhqswx,ms1000272,iti,,null,img/motor_2.png,83,motor,,,,,,,
484,,277226,HierDyoxlnh4wk,osukwhqswx,ms1000272,motor,,75,img/motor_7.png,75,motor,7,253,1,0,0,,
null,,277335,HierDyoxlnh4wk,osukwhqswx,ms1000272,iti,,null,img/motor_7.png,75,motor,,,,,,,
516,,277858,HierDyoxlnh4wk,osukwhqswx,ms1000272,motor,,83,img/motor_2.png,83,motor,2,254,1,0,0,,
null,,277972,HierDyoxlnh4wk,osukwhqswx,ms1000272,iti,,null,img/motor_2.png,83,motor,,,,,,,
396,,278385,HierDyoxlnh4wk,osukwhqswx,ms1000272,motor,,75,img/motor_7.png,75,motor,7,255,1,0,0,,
null,,278495,HierDyoxlnh4wk,osukwhqswx,ms1000272,iti,,null,img/motor_7.png,75,motor,,,,,,,
522,,279026,HierDyoxlnh4wk,osukwhqswx,ms1000272,motor,,76,img/motor_8.png,76,motor,8,256,1,0,0,,
null,,279134,HierDyoxlnh4wk,osukwhqswx,ms1000272,iti,,null,img/motor_8.png,76,motor,,,,,,,
539,,279689,HierDyoxlnh4wk,osukwhqswx,ms1000272,motor,,65,img/motor_1.png,65,motor,1,257,1,0,0,,
null,,279805,HierDyoxlnh4wk,osukwhqswx,ms1000272,iti,,null,img/motor_1.png,65,motor,,,,,,,
613,,280427,HierDyoxlnh4wk,osukwhqswx,ms1000272,motor,,76,img/motor_8.png,76,motor,8,258,1,0,0,,
null,,280536,HierDyoxlnh4wk,osukwhqswx,ms1000272,iti,,null,img/motor_8.png,76,motor,,,,,,,
691,,281234,HierDyoxlnh4wk,osukwhqswx,ms1000272,motor,,68,img/motor_4.png,70,motor,4,259,0,1,0,,
56,,281304,HierDyoxlnh4wk,osukwhqswx,ms1000272,motorRepeat,,70,img/motor_4.png,70,motor,4,259,1,0,0,,
null,,281413,HierDyoxlnh4wk,osukwhqswx,ms1000272,iti,,null,img/motor_4.png,70,motor,,,,,,,
509,,281937,HierDyoxlnh4wk,osukwhqswx,ms1000272,motor,,83,img/motor_2.png,83,motor,2,260,1,0,0,,
null,,282047,HierDyoxlnh4wk,osukwhqswx,ms1000272,iti,,null,img/motor_2.png,83,motor,,,,,,,
1043,,283098,HierDyoxlnh4wk,osukwhqswx,ms1000272,motor,,74,img/motor_6.png,74,motor,6,261,1,0,0,,
null,,283213,HierDyoxlnh4wk,osukwhqswx,ms1000272,iti,,null,img/motor_6.png,74,motor,,,,,,,
989,,284217,HierDyoxlnh4wk,osukwhqswx,ms1000272,motor,,65,img/motor_1.png,65,motor,1,262,1,0,0,,
null,,284333,HierDyoxlnh4wk,osukwhqswx,ms1000272,iti,,null,img/motor_1.png,65,motor,,,,,,,
580,,284922,HierDyoxlnh4wk,osukwhqswx,ms1000272,motor,,75,img/motor_7.png,75,motor,7,263,1,0,0,,
null,,285038,HierDyoxlnh4wk,osukwhqswx,ms1000272,iti,,null,img/motor_7.png,75,motor,,,,,,,
372,,285418,HierDyoxlnh4wk,osukwhqswx,ms1000272,motor,,76,img/motor_8.png,76,motor,8,264,1,0,0,,
null,,285533,HierDyoxlnh4wk,osukwhqswx,ms1000272,iti,,null,img/motor_8.png,76,motor,,,,,,,
372,,285915,HierDyoxlnh4wk,osukwhqswx,ms1000272,motor,,76,img/motor_8.png,76,motor,8,265,1,0,0,,
null,,286024,HierDyoxlnh4wk,osukwhqswx,ms1000272,iti,,null,img/motor_8.png,76,motor,,,,,,,
435,,286473,HierDyoxlnh4wk,osukwhqswx,ms1000272,motor,,70,img/motor_4.png,70,motor,4,266,1,0,0,,
null,,286583,HierDyoxlnh4wk,osukwhqswx,ms1000272,iti,,null,img/motor_4.png,70,motor,,,,,,,
459,,287050,HierDyoxlnh4wk,osukwhqswx,ms1000272,motor,,75,img/motor_7.png,75,motor,7,267,1,0,0,,
null,,287159,HierDyoxlnh4wk,osukwhqswx,ms1000272,iti,,null,img/motor_7.png,75,motor,,,,,,,
515,,287689,HierDyoxlnh4wk,osukwhqswx,ms1000272,motor,,65,img/motor_1.png,65,motor,1,268,1,0,0,,
null,,287798,HierDyoxlnh4wk,osukwhqswx,ms1000272,iti,,null,img/motor_1.png,65,motor,,,,,,,
565,,288376,HierDyoxlnh4wk,osukwhqswx,ms1000272,motor,,72,img/motor_5.png,72,motor,5,269,1,0,0,,
null,,288486,HierDyoxlnh4wk,osukwhqswx,ms1000272,iti,,null,img/motor_5.png,72,motor,,,,,,,
428,,288930,HierDyoxlnh4wk,osukwhqswx,ms1000272,motor,,75,img/motor_7.png,75,motor,7,270,1,0,0,,
null,,289039,HierDyoxlnh4wk,osukwhqswx,ms1000272,iti,,null,img/motor_7.png,75,motor,,,,,,,
411,,289465,HierDyoxlnh4wk,osukwhqswx,ms1000272,motor,,72,img/motor_5.png,72,motor,5,271,1,0,0,,
null,,289581,HierDyoxlnh4wk,osukwhqswx,ms1000272,iti,,null,img/motor_5.png,72,motor,,,,,,,
580,,290171,HierDyoxlnh4wk,osukwhqswx,ms1000272,motor,,83,img/motor_3.png,68,motor,3,272,0,1,0,,
279,,290465,HierDyoxlnh4wk,osukwhqswx,ms1000272,motorRepeat,,68,img/motor_3.png,68,motor,3,272,1,0,0,,
null,,290575,HierDyoxlnh4wk,osukwhqswx,ms1000272,iti,,null,img/motor_3.png,68,motor,,,,,,,
340,,290929,HierDyoxlnh4wk,osukwhqswx,ms1000272,motor,,68,img/motor_3.png,68,motor,3,273,1,0,0,,
null,,291038,HierDyoxlnh4wk,osukwhqswx,ms1000272,iti,,null,img/motor_3.png,68,motor,,,,,,,
445,,291490,HierDyoxlnh4wk,osukwhqswx,ms1000272,motor,,76,img/motor_8.png,76,motor,8,274,1,0,0,,
null,,291598,HierDyoxlnh4wk,osukwhqswx,ms1000272,iti,,null,img/motor_8.png,76,motor,,,,,,,
404,,292010,HierDyoxlnh4wk,osukwhqswx,ms1000272,motor,,74,img/motor_6.png,74,motor,6,275,1,0,0,,
null,,292125,HierDyoxlnh4wk,osukwhqswx,ms1000272,iti,,null,img/motor_6.png,74,motor,,,,,,,
381,,292521,HierDyoxlnh4wk,osukwhqswx,ms1000272,motor,,75,img/motor_7.png,75,motor,7,276,1,0,0,,
null,,292638,HierDyoxlnh4wk,osukwhqswx,ms1000272,iti,,null,img/motor_7.png,75,motor,,,,,,,
459,,293113,HierDyoxlnh4wk,osukwhqswx,ms1000272,motor,,65,img/motor_1.png,65,motor,1,277,1,0,0,,
null,,293222,HierDyoxlnh4wk,osukwhqswx,ms1000272,iti,,null,img/motor_1.png,65,motor,,,,,,,
387,,293625,HierDyoxlnh4wk,osukwhqswx,ms1000272,motor,,70,img/motor_4.png,70,motor,4,278,1,0,0,,
null,,293735,HierDyoxlnh4wk,osukwhqswx,ms1000272,iti,,null,img/motor_4.png,70,motor,,,,,,,
459,,294209,HierDyoxlnh4wk,osukwhqswx,ms1000272,motor,,68,img/motor_3.png,68,motor,3,279,1,0,0,,
null,,294325,HierDyoxlnh4wk,osukwhqswx,ms1000272,iti,,null,img/motor_3.png,68,motor,,,,,,,
396,,294732,HierDyoxlnh4wk,osukwhqswx,ms1000272,motor,,70,img/motor_4.png,70,motor,4,280,1,0,0,,
null,,294846,HierDyoxlnh4wk,osukwhqswx,ms1000272,iti,,null,img/motor_4.png,70,motor,,,,,,,
571,,295433,HierDyoxlnh4wk,osukwhqswx,ms1000272,motor,,65,img/motor_1.png,65,motor,1,281,1,0,0,,
null,,295543,HierDyoxlnh4wk,osukwhqswx,ms1000272,iti,,null,img/motor_1.png,65,motor,,,,,,,
443,,296001,HierDyoxlnh4wk,osukwhqswx,ms1000272,motor,,68,img/motor_3.png,68,motor,3,282,1,0,0,,
null,,296110,HierDyoxlnh4wk,osukwhqswx,ms1000272,iti,,null,img/motor_3.png,68,motor,,,,,,,
548,,296674,HierDyoxlnh4wk,osukwhqswx,ms1000272,motor,,75,img/motor_6.png,74,motor,6,283,0,1,0,,
328,,297010,HierDyoxlnh4wk,osukwhqswx,ms1000272,motorRepeat,,74,img/motor_6.png,74,motor,6,283,1,0,0,,
null,,297119,HierDyoxlnh4wk,osukwhqswx,ms1000272,iti,,null,img/motor_6.png,74,motor,,,,,,,
427,,297561,HierDyoxlnh4wk,osukwhqswx,ms1000272,motor,,75,img/motor_7.png,75,motor,7,284,1,0,0,,
null,,297670,HierDyoxlnh4wk,osukwhqswx,ms1000272,iti,,null,img/motor_7.png,75,motor,,,,,,,
548,,298233,HierDyoxlnh4wk,osukwhqswx,ms1000272,motor,,70,img/motor_4.png,70,motor,4,285,1,0,0,,
null,,298349,HierDyoxlnh4wk,osukwhqswx,ms1000272,iti,,null,img/motor_4.png,70,motor,,,,,,,
580,,298945,HierDyoxlnh4wk,osukwhqswx,ms1000272,motor,,75,img/motor_7.png,75,motor,7,286,1,0,0,,
null,,299061,HierDyoxlnh4wk,osukwhqswx,ms1000272,iti,,null,img/motor_7.png,75,motor,,,,,,,
700,,299777,HierDyoxlnh4wk,osukwhqswx,ms1000272,motor,,65,img/motor_1.png,65,motor,1,287,1,0,0,,
null,,299886,HierDyoxlnh4wk,osukwhqswx,ms1000272,iti,,null,img/motor_1.png,65,motor,,,,,,,
636,,300531,HierDyoxlnh4wk,osukwhqswx,ms1000272,motor,,83,img/motor_2.png,83,motor,2,288,1,0,0,,
null,,300640,HierDyoxlnh4wk,osukwhqswx,ms1000272,iti,,null,img/motor_2.png,83,motor,,,,,,,
386,,301041,HierDyoxlnh4wk,osukwhqswx,ms1000272,motor,,83,img/motor_2.png,83,motor,2,289,1,0,0,,
null,,301157,HierDyoxlnh4wk,osukwhqswx,ms1000272,iti,,null,img/motor_2.png,83,motor,,,,,,,
476,,301649,HierDyoxlnh4wk,osukwhqswx,ms1000272,motor,,72,img/motor_5.png,72,motor,5,290,1,0,0,,
null,,301765,HierDyoxlnh4wk,osukwhqswx,ms1000272,iti,,null,img/motor_5.png,72,motor,,,,,,,
468,,302242,HierDyoxlnh4wk,osukwhqswx,ms1000272,motor,,83,img/motor_2.png,83,motor,2,291,1,0,0,,
null,,302358,HierDyoxlnh4wk,osukwhqswx,ms1000272,iti,,null,img/motor_2.png,83,motor,,,,,,,
499,,302866,HierDyoxlnh4wk,osukwhqswx,ms1000272,motor,,65,img/motor_1.png,65,motor,1,292,1,0,0,,
null,,302975,HierDyoxlnh4wk,osukwhqswx,ms1000272,iti,,null,img/motor_1.png,65,motor,,,,,,,
515,,303506,HierDyoxlnh4wk,osukwhqswx,ms1000272,motor,,68,img/motor_3.png,68,motor,3,293,1,0,0,,
null,,303622,HierDyoxlnh4wk,osukwhqswx,ms1000272,iti,,null,img/motor_3.png,68,motor,,,,,,,
476,,304107,HierDyoxlnh4wk,osukwhqswx,ms1000272,motor,,76,img/motor_8.png,76,motor,8,294,1,0,0,,
null,,304215,HierDyoxlnh4wk,osukwhqswx,ms1000272,iti,,null,img/motor_8.png,76,motor,,,,,,,
476,,304699,HierDyoxlnh4wk,osukwhqswx,ms1000272,motor,,65,img/motor_1.png,65,motor,1,295,1,0,0,,
null,,304808,HierDyoxlnh4wk,osukwhqswx,ms1000272,iti,,null,img/motor_1.png,65,motor,,,,,,,
516,,305338,HierDyoxlnh4wk,osukwhqswx,ms1000272,motor,,68,img/motor_2.png,83,motor,2,296,0,1,0,,
312,,305666,HierDyoxlnh4wk,osukwhqswx,ms1000272,motorRepeat,,83,img/motor_2.png,83,motor,2,296,1,0,0,,
null,,305775,HierDyoxlnh4wk,osukwhqswx,ms1000272,iti,,null,img/motor_2.png,83,motor,,,,,,,
484,,306273,HierDyoxlnh4wk,osukwhqswx,ms1000272,motor,,65,img/motor_1.png,65,motor,1,297,1,0,0,,
null,,306383,HierDyoxlnh4wk,osukwhqswx,ms1000272,iti,,null,img/motor_1.png,65,motor,,,,,,,
507,,306898,HierDyoxlnh4wk,osukwhqswx,ms1000272,motor,,72,img/motor_5.png,72,motor,5,298,1,0,0,,
null,,307014,HierDyoxlnh4wk,osukwhqswx,ms1000272,iti,,null,img/motor_5.png,72,motor,,,,,,,
468,,307490,HierDyoxlnh4wk,osukwhqswx,ms1000272,motor,,65,img/motor_1.png,65,motor,1,299,1,0,0,,
null,,307605,HierDyoxlnh4wk,osukwhqswx,ms1000272,iti,,null,img/motor_1.png,65,motor,,,,,,,
476,,308097,HierDyoxlnh4wk,osukwhqswx,ms1000272,motor,,76,img/motor_8.png,76,motor,8,300,1,0,0,,
null,,308207,HierDyoxlnh4wk,osukwhqswx,ms1000272,iti,,null,img/motor_8.png,76,motor,,,,,,,
444,,308665,HierDyoxlnh4wk,osukwhqswx,ms1000272,motor,,65,img/motor_1.png,65,motor,1,301,1,0,0,,
null,,308774,HierDyoxlnh4wk,osukwhqswx,ms1000272,iti,,null,img/motor_1.png,65,motor,,,,,,,
500,,309283,HierDyoxlnh4wk,osukwhqswx,ms1000272,motor,,83,img/motor_2.png,83,motor,2,302,1,0,0,,
null,,309392,HierDyoxlnh4wk,osukwhqswx,ms1000272,iti,,null,img/motor_2.png,83,motor,,,,,,,
466,,309867,HierDyoxlnh4wk,osukwhqswx,ms1000272,motor,,70,img/motor_4.png,70,motor,4,303,1,0,0,,
null,,309975,HierDyoxlnh4wk,osukwhqswx,ms1000272,iti,,null,img/motor_4.png,70,motor,,,,,,,
587,,310571,HierDyoxlnh4wk,osukwhqswx,ms1000272,motor,,68,img/motor_3.png,68,motor,3,304,1,0,0,,
null,,310679,HierDyoxlnh4wk,osukwhqswx,ms1000272,iti,,null,img/motor_3.png,68,motor,,,,,,,
451,,311137,HierDyoxlnh4wk,osukwhqswx,ms1000272,motor,,68,img/motor_3.png,68,motor,3,305,1,0,0,,
null,,311245,HierDyoxlnh4wk,osukwhqswx,ms1000272,iti,,null,img/motor_3.png,68,motor,,,,,,,
541,,311802,HierDyoxlnh4wk,osukwhqswx,ms1000272,motor,,83,img/motor_2.png,83,motor,2,306,1,0,0,,
null,,311910,HierDyoxlnh4wk,osukwhqswx,ms1000272,iti,,null,img/motor_2.png,83,motor,,,,,,,
547,,312467,HierDyoxlnh4wk,osukwhqswx,ms1000272,motor,,75,img/motor_7.png,75,motor,7,307,1,0,0,,
null,,312583,HierDyoxlnh4wk,osukwhqswx,ms1000272,iti,,null,img/motor_7.png,75,motor,,,,,,,
452,,313043,HierDyoxlnh4wk,osukwhqswx,ms1000272,motor,,76,img/motor_8.png,76,motor,8,308,1,0,0,,
null,,313158,HierDyoxlnh4wk,osukwhqswx,ms1000272,iti,,null,img/motor_8.png,76,motor,,,,,,,
532,,313706,HierDyoxlnh4wk,osukwhqswx,ms1000272,motor,,70,img/motor_4.png,70,motor,4,309,1,0,0,,
null,,313822,HierDyoxlnh4wk,osukwhqswx,ms1000272,iti,,null,img/motor_4.png,70,motor,,,,,,,
516,,314353,HierDyoxlnh4wk,osukwhqswx,ms1000272,motor,,68,img/motor_3.png,68,motor,3,310,1,0,0,,
null,,314463,HierDyoxlnh4wk,osukwhqswx,ms1000272,iti,,null,img/motor_3.png,68,motor,,,,,,,
779,,315257,HierDyoxlnh4wk,osukwhqswx,ms1000272,motor,,74,img/motor_6.png,74,motor,6,311,1,0,0,,
null,,315366,HierDyoxlnh4wk,osukwhqswx,ms1000272,iti,,null,img/motor_6.png,74,motor,,,,,,,
444,,315825,HierDyoxlnh4wk,osukwhqswx,ms1000272,motor,,76,img/motor_8.png,76,motor,8,312,1,0,0,,
null,,315934,HierDyoxlnh4wk,osukwhqswx,ms1000272,iti,,null,img/motor_8.png,76,motor,,,,,,,
508,,316451,HierDyoxlnh4wk,osukwhqswx,ms1000272,motor,,83,img/motor_2.png,83,motor,2,313,1,0,0,,
null,,316565,HierDyoxlnh4wk,osukwhqswx,ms1000272,iti,,null,img/motor_2.png,83,motor,,,,,,,
492,,317066,HierDyoxlnh4wk,osukwhqswx,ms1000272,motor,,65,img/motor_1.png,65,motor,1,314,1,0,0,,
null,,317181,HierDyoxlnh4wk,osukwhqswx,ms1000272,iti,,null,img/motor_1.png,65,motor,,,,,,,
549,,317738,HierDyoxlnh4wk,osukwhqswx,ms1000272,motor,,68,img/motor_3.png,68,motor,3,315,1,0,0,,
null,,317853,HierDyoxlnh4wk,osukwhqswx,ms1000272,iti,,null,img/motor_3.png,68,motor,,,,,,,
484,,318353,HierDyoxlnh4wk,osukwhqswx,ms1000272,motor,,76,img/motor_8.png,76,motor,8,316,1,0,0,,
null,,318462,HierDyoxlnh4wk,osukwhqswx,ms1000272,iti,,null,img/motor_8.png,76,motor,,,,,,,
572,,319042,HierDyoxlnh4wk,osukwhqswx,ms1000272,motor,,70,img/motor_4.png,70,motor,4,317,1,0,0,,
null,,319158,HierDyoxlnh4wk,osukwhqswx,ms1000272,iti,,null,img/motor_4.png,70,motor,,,,,,,
667,,319841,HierDyoxlnh4wk,osukwhqswx,ms1000272,motor,,74,img/motor_6.png,74,motor,6,318,1,0,0,,
null,,319957,HierDyoxlnh4wk,osukwhqswx,ms1000272,iti,,null,img/motor_6.png,74,motor,,,,,,,
436,,320403,HierDyoxlnh4wk,osukwhqswx,ms1000272,motor,,76,img/motor_8.png,76,motor,8,319,1,0,0,,
null,,320518,HierDyoxlnh4wk,osukwhqswx,ms1000272,iti,,null,img/motor_8.png,76,motor,,,,,,,
500,,321026,HierDyoxlnh4wk,osukwhqswx,ms1000272,motor,,75,img/motor_7.png,75,motor,7,320,1,0,0,,
null,,321136,HierDyoxlnh4wk,osukwhqswx,ms1000272,iti,,null,img/motor_7.png,75,motor,,,,,,,
474,,321618,HierDyoxlnh4wk,osukwhqswx,ms1000272,motor,,72,img/motor_5.png,72,motor,5,321,1,0,0,,
null,,321734,HierDyoxlnh4wk,osukwhqswx,ms1000272,iti,,null,img/motor_5.png,72,motor,,,,,,,
491,,322235,HierDyoxlnh4wk,osukwhqswx,ms1000272,motor,,75,img/motor_7.png,75,motor,7,322,1,0,0,,
null,,322344,HierDyoxlnh4wk,osukwhqswx,ms1000272,iti,,null,img/motor_7.png,75,motor,,,,,,,
458,,322810,HierDyoxlnh4wk,osukwhqswx,ms1000272,motor,,65,img/motor_1.png,65,motor,1,323,1,0,0,,
null,,322918,HierDyoxlnh4wk,osukwhqswx,ms1000272,iti,,null,img/motor_1.png,65,motor,,,,,,,
411,,323339,HierDyoxlnh4wk,osukwhqswx,ms1000272,motor,,70,img/motor_4.png,70,motor,4,324,1,0,0,,
null,,323455,HierDyoxlnh4wk,osukwhqswx,ms1000272,iti,,null,img/motor_4.png,70,motor,,,,,,,
419,,323882,HierDyoxlnh4wk,osukwhqswx,ms1000272,motor,,65,img/motor_1.png,65,motor,1,325,1,0,0,,
null,,323992,HierDyoxlnh4wk,osukwhqswx,ms1000272,iti,,null,img/motor_1.png,65,motor,,,,,,,
378,,324378,HierDyoxlnh4wk,osukwhqswx,ms1000272,motor,,70,img/motor_4.png,70,motor,4,326,1,0,0,,
null,,324494,HierDyoxlnh4wk,osukwhqswx,ms1000272,iti,,null,img/motor_4.png,70,motor,,,,,,,
467,,324970,HierDyoxlnh4wk,osukwhqswx,ms1000272,motor,,76,img/motor_8.png,76,motor,8,327,1,0,0,,
null,,325086,HierDyoxlnh4wk,osukwhqswx,ms1000272,iti,,null,img/motor_8.png,76,motor,,,,,,,
436,,325530,HierDyoxlnh4wk,osukwhqswx,ms1000272,motor,,65,img/motor_1.png,65,motor,1,328,1,0,0,,
null,,325645,HierDyoxlnh4wk,osukwhqswx,ms1000272,iti,,null,img/motor_1.png,65,motor,,,,,,,
468,,326125,HierDyoxlnh4wk,osukwhqswx,ms1000272,motor,,83,img/motor_2.png,83,motor,2,329,1,0,0,,
null,,326241,HierDyoxlnh4wk,osukwhqswx,ms1000272,iti,,null,img/motor_2.png,83,motor,,,,,,,
430,,326682,HierDyoxlnh4wk,osukwhqswx,ms1000272,motor,,76,img/motor_8.png,76,motor,8,330,1,0,0,,
null,,326798,HierDyoxlnh4wk,osukwhqswx,ms1000272,iti,,null,img/motor_8.png,76,motor,,,,,,,
379,,327185,HierDyoxlnh4wk,osukwhqswx,ms1000272,motor,,76,img/motor_8.png,76,motor,8,331,1,0,0,,
null,,327303,HierDyoxlnh4wk,osukwhqswx,ms1000272,iti,,null,img/motor_8.png,76,motor,,,,,,,
475,,327794,HierDyoxlnh4wk,osukwhqswx,ms1000272,motor,,74,img/motor_6.png,74,motor,6,332,1,0,0,,
null,,327910,HierDyoxlnh4wk,osukwhqswx,ms1000272,iti,,null,img/motor_6.png,74,motor,,,,,,,
492,,328410,HierDyoxlnh4wk,osukwhqswx,ms1000272,motor,,75,img/motor_7.png,75,motor,7,333,1,0,0,,
null,,328526,HierDyoxlnh4wk,osukwhqswx,ms1000272,iti,,null,img/motor_7.png,75,motor,,,,,,,
410,,328947,HierDyoxlnh4wk,osukwhqswx,ms1000272,motor,,72,img/motor_5.png,72,motor,5,334,1,0,0,,
null,,329062,HierDyoxlnh4wk,osukwhqswx,ms1000272,iti,,null,img/motor_5.png,72,motor,,,,,,,
507,,329579,HierDyoxlnh4wk,osukwhqswx,ms1000272,motor,,74,img/motor_6.png,74,motor,6,335,1,0,0,,
null,,329688,HierDyoxlnh4wk,osukwhqswx,ms1000272,iti,,null,img/motor_6.png,74,motor,,,,,,,
458,,330161,HierDyoxlnh4wk,osukwhqswx,ms1000272,motor,,70,img/motor_4.png,70,motor,4,336,1,0,0,,
null,,330272,HierDyoxlnh4wk,osukwhqswx,ms1000272,iti,,null,img/motor_4.png,70,motor,,,,,,,
452,,330738,HierDyoxlnh4wk,osukwhqswx,ms1000272,motor,,76,img/motor_8.png,76,motor,8,337,1,0,0,,
null,,330854,HierDyoxlnh4wk,osukwhqswx,ms1000272,iti,,null,img/motor_8.png,76,motor,,,,,,,
548,,331410,HierDyoxlnh4wk,osukwhqswx,ms1000272,motor,,68,img/motor_3.png,68,motor,3,338,1,0,0,,
null,,331518,HierDyoxlnh4wk,osukwhqswx,ms1000272,iti,,null,img/motor_3.png,68,motor,,,,,,,
516,,332043,HierDyoxlnh4wk,osukwhqswx,ms1000272,motor,,83,img/motor_2.png,83,motor,2,339,1,0,0,,
null,,332157,HierDyoxlnh4wk,osukwhqswx,ms1000272,iti,,null,img/motor_2.png,83,motor,,,,,,,
620,,332786,HierDyoxlnh4wk,osukwhqswx,ms1000272,motor,,74,img/motor_6.png,74,motor,6,340,1,0,0,,
null,,332903,HierDyoxlnh4wk,osukwhqswx,ms1000272,iti,,null,img/motor_6.png,74,motor,,,,,,,
459,,333371,HierDyoxlnh4wk,osukwhqswx,ms1000272,motor,,75,img/motor_7.png,75,motor,7,341,1,0,0,,
null,,333479,HierDyoxlnh4wk,osukwhqswx,ms1000272,iti,,null,img/motor_7.png,75,motor,,,,,,,
514,,334010,HierDyoxlnh4wk,osukwhqswx,ms1000272,motor,,83,img/motor_2.png,83,motor,2,342,1,0,0,,
null,,334126,HierDyoxlnh4wk,osukwhqswx,ms1000272,iti,,null,img/motor_2.png,83,motor,,,,,,,
507,,334642,HierDyoxlnh4wk,osukwhqswx,ms1000272,motor,,75,img/motor_7.png,75,motor,7,343,1,0,0,,
null,,334758,HierDyoxlnh4wk,osukwhqswx,ms1000272,iti,,null,img/motor_7.png,75,motor,,,,,,,
372,,335139,HierDyoxlnh4wk,osukwhqswx,ms1000272,motor,,75,img/motor_7.png,75,motor,7,344,1,0,0,,
null,,335255,HierDyoxlnh4wk,osukwhqswx,ms1000272,iti,,null,img/motor_7.png,75,motor,,,,,,,
411,,335681,HierDyoxlnh4wk,osukwhqswx,ms1000272,motor,,72,img/motor_5.png,72,motor,5,345,1,0,0,,
null,,335798,HierDyoxlnh4wk,osukwhqswx,ms1000272,iti,,null,img/motor_5.png,72,motor,,,,,,,
373,,336179,HierDyoxlnh4wk,osukwhqswx,ms1000272,motor,,75,img/motor_7.png,75,motor,7,346,1,0,0,,
null,,336295,HierDyoxlnh4wk,osukwhqswx,ms1000272,iti,,null,img/motor_7.png,75,motor,,,,,,,
371,,336682,HierDyoxlnh4wk,osukwhqswx,ms1000272,motor,,72,img/motor_5.png,72,motor,5,347,1,0,0,,
null,,336792,HierDyoxlnh4wk,osukwhqswx,ms1000272,iti,,null,img/motor_5.png,72,motor,,,,,,,
355,,337154,HierDyoxlnh4wk,osukwhqswx,ms1000272,motor,,72,img/motor_5.png,72,motor,5,348,1,0,0,,
null,,337264,HierDyoxlnh4wk,osukwhqswx,ms1000272,iti,,null,img/motor_5.png,72,motor,,,,,,,
411,,337683,HierDyoxlnh4wk,osukwhqswx,ms1000272,motor,,76,img/motor_8.png,76,motor,8,349,1,0,0,,
null,,337792,HierDyoxlnh4wk,osukwhqswx,ms1000272,iti,,null,img/motor_8.png,76,motor,,,,,,,
442,,338242,HierDyoxlnh4wk,osukwhqswx,ms1000272,motor,,74,img/motor_6.png,74,motor,6,350,1,0,0,,
null,,338352,HierDyoxlnh4wk,osukwhqswx,ms1000272,iti,,null,img/motor_6.png,74,motor,,,,,,,
571,,338931,HierDyoxlnh4wk,osukwhqswx,ms1000272,motor,,83,img/motor_2.png,83,motor,2,351,1,0,0,,
null,,339040,HierDyoxlnh4wk,osukwhqswx,ms1000272,iti,,null,img/motor_2.png,83,motor,,,,,,,
419,,339467,HierDyoxlnh4wk,osukwhqswx,ms1000272,motor,,72,img/motor_5.png,72,motor,5,352,1,0,0,,
null,,339575,HierDyoxlnh4wk,osukwhqswx,ms1000272,iti,,null,img/motor_5.png,72,motor,,,,,,,
435,,340019,HierDyoxlnh4wk,osukwhqswx,ms1000272,motor,,70,img/motor_4.png,70,motor,4,353,1,0,0,,
null,,340134,HierDyoxlnh4wk,osukwhqswx,ms1000272,iti,,null,img/motor_4.png,70,motor,,,,,,,
412,,340555,HierDyoxlnh4wk,osukwhqswx,ms1000272,motor,,74,img/motor_5.png,72,motor,5,354,0,1,0,,
311,,340875,HierDyoxlnh4wk,osukwhqswx,ms1000272,motorRepeat,,72,img/motor_5.png,72,motor,5,354,1,0,0,,
null,,340990,HierDyoxlnh4wk,osukwhqswx,ms1000272,iti,,null,img/motor_5.png,72,motor,,,,,,,
420,,341419,HierDyoxlnh4wk,osukwhqswx,ms1000272,motor,,74,img/motor_6.png,74,motor,6,355,1,0,0,,
null,,341535,HierDyoxlnh4wk,osukwhqswx,ms1000272,iti,,null,img/motor_6.png,74,motor,,,,,,,
452,,342002,HierDyoxlnh4wk,osukwhqswx,ms1000272,motor,,76,img/motor_8.png,76,motor,8,356,1,0,0,,
null,,342119,HierDyoxlnh4wk,osukwhqswx,ms1000272,iti,,null,img/motor_8.png,76,motor,,,,,,,
443,,342578,HierDyoxlnh4wk,osukwhqswx,ms1000272,motor,,75,img/motor_7.png,75,motor,7,357,1,0,0,,
null,,342688,HierDyoxlnh4wk,osukwhqswx,ms1000272,iti,,null,img/motor_7.png,75,motor,,,,,,,
450,,343153,HierDyoxlnh4wk,osukwhqswx,ms1000272,motor,,74,img/motor_6.png,74,motor,6,358,1,0,0,,
null,,343263,HierDyoxlnh4wk,osukwhqswx,ms1000272,iti,,null,img/motor_6.png,74,motor,,,,,,,
509,,343779,HierDyoxlnh4wk,osukwhqswx,ms1000272,motor,,83,img/motor_2.png,83,motor,2,359,1,0,0,,
null,,343894,HierDyoxlnh4wk,osukwhqswx,ms1000272,iti,,null,img/motor_2.png,83,motor,,,,,,,
501,,344402,HierDyoxlnh4wk,osukwhqswx,ms1000272,motor,,75,img/motor_7.png,75,motor,7,360,1,0,0,,
null,,344518,HierDyoxlnh4wk,osukwhqswx,ms1000272,iti,,null,img/motor_7.png,75,motor,,,,,,,
467,,344995,HierDyoxlnh4wk,osukwhqswx,ms1000272,motor,,83,img/motor_3.png,68,motor,3,361,0,1,0,,
263,,345267,HierDyoxlnh4wk,osukwhqswx,ms1000272,motorRepeat,,68,img/motor_3.png,68,motor,3,361,1,0,0,,
null,,345375,HierDyoxlnh4wk,osukwhqswx,ms1000272,iti,,null,img/motor_3.png,68,motor,,,,,,,
460,,345844,HierDyoxlnh4wk,osukwhqswx,ms1000272,motor,,74,img/motor_6.png,74,motor,6,362,1,0,0,,
null,,345952,HierDyoxlnh4wk,osukwhqswx,ms1000272,iti,,null,img/motor_6.png,74,motor,,,,,,,
395,,346355,HierDyoxlnh4wk,osukwhqswx,ms1000272,motor,,72,img/motor_5.png,72,motor,5,363,1,0,0,,
null,,346464,HierDyoxlnh4wk,osukwhqswx,ms1000272,iti,,null,img/motor_5.png,72,motor,,,,,,,
466,,346940,HierDyoxlnh4wk,osukwhqswx,ms1000272,motor,,68,img/motor_3.png,68,motor,3,364,1,0,0,,
46,,347048,HierDyoxlnh4wk,osukwhqswx,ms1000272,iti,,83,img/motor_3.png,68,motor,,,,,,,
570,,347627,HierDyoxlnh4wk,osukwhqswx,ms1000272,motor,,76,img/motor_8.png,76,motor,8,365,1,0,0,,
null,,347736,HierDyoxlnh4wk,osukwhqswx,ms1000272,iti,,null,img/motor_8.png,76,motor,,,,,,,
507,,348258,HierDyoxlnh4wk,osukwhqswx,ms1000272,motor,,68,img/motor_3.png,68,motor,3,366,1,0,0,,
null,,348368,HierDyoxlnh4wk,osukwhqswx,ms1000272,iti,,null,img/motor_3.png,68,motor,,,,,,,
523,,348907,HierDyoxlnh4wk,osukwhqswx,ms1000272,motor,,72,img/motor_5.png,72,motor,5,367,1,0,0,,
null,,349015,HierDyoxlnh4wk,osukwhqswx,ms1000272,iti,,null,img/motor_5.png,72,motor,,,,,,,
419,,349450,HierDyoxlnh4wk,osukwhqswx,ms1000272,motor,,74,img/motor_6.png,74,motor,6,368,1,0,0,,
null,,349560,HierDyoxlnh4wk,osukwhqswx,ms1000272,iti,,null,img/motor_6.png,74,motor,,,,,,,
467,,350035,HierDyoxlnh4wk,osukwhqswx,ms1000272,motor,,70,img/motor_4.png,70,motor,4,369,1,0,0,,
null,,350144,HierDyoxlnh4wk,osukwhqswx,ms1000272,iti,,null,img/motor_4.png,70,motor,,,,,,,
546,,350705,HierDyoxlnh4wk,osukwhqswx,ms1000272,motor,,74,img/motor_6.png,74,motor,6,370,1,0,0,,
null,,350822,HierDyoxlnh4wk,osukwhqswx,ms1000272,iti,,null,img/motor_6.png,74,motor,,,,,,,
461,,351291,HierDyoxlnh4wk,osukwhqswx,ms1000272,motor,,72,img/motor_5.png,72,motor,5,371,1,0,0,,
null,,351408,HierDyoxlnh4wk,osukwhqswx,ms1000272,iti,,null,img/motor_5.png,72,motor,,,,,,,
594,,352018,HierDyoxlnh4wk,osukwhqswx,ms1000272,motor,,83,img/motor_2.png,83,motor,2,372,1,0,0,,
null,,352134,HierDyoxlnh4wk,osukwhqswx,ms1000272,iti,,null,img/motor_2.png,83,motor,,,,,,,
428,,352570,HierDyoxlnh4wk,osukwhqswx,ms1000272,motor,,83,img/motor_2.png,83,motor,2,373,1,0,0,,
null,,352684,HierDyoxlnh4wk,osukwhqswx,ms1000272,iti,,null,img/motor_2.png,83,motor,,,,,,,
509,,353210,HierDyoxlnh4wk,osukwhqswx,ms1000272,motor,,68,img/motor_3.png,68,motor,3,374,1,0,0,,
null,,353319,HierDyoxlnh4wk,osukwhqswx,ms1000272,iti,,null,img/motor_3.png,68,motor,,,,,,,
475,,353803,HierDyoxlnh4wk,osukwhqswx,ms1000272,motor,,65,img/motor_1.png,65,motor,1,375,1,0,0,,
null,,353912,HierDyoxlnh4wk,osukwhqswx,ms1000272,iti,,null,img/motor_1.png,65,motor,,,,,,,
530,,354451,HierDyoxlnh4wk,osukwhqswx,ms1000272,motor,,75,img/motor_7.png,75,motor,7,376,1,0,0,,
null,,354559,HierDyoxlnh4wk,osukwhqswx,ms1000272,iti,,null,img/motor_7.png,75,motor,,,,,,,
386,,354955,HierDyoxlnh4wk,osukwhqswx,ms1000272,motor,,72,img/motor_5.png,72,motor,5,377,1,0,0,,
null,,355071,HierDyoxlnh4wk,osukwhqswx,ms1000272,iti,,null,img/motor_5.png,72,motor,,,,,,,
531,,355618,HierDyoxlnh4wk,osukwhqswx,ms1000272,motor,,68,img/motor_3.png,68,motor,3,378,1,0,0,,
null,,355734,HierDyoxlnh4wk,osukwhqswx,ms1000272,iti,,null,img/motor_3.png,68,motor,,,,,,,
524,,356267,HierDyoxlnh4wk,osukwhqswx,ms1000272,motor,,83,img/motor_2.png,83,motor,2,379,1,0,0,,
null,,356384,HierDyoxlnh4wk,osukwhqswx,ms1000272,iti,,null,img/motor_2.png,83,motor,,,,,,,
387,,356785,HierDyoxlnh4wk,osukwhqswx,ms1000272,motor,,83,img/motor_2.png,83,motor,2,380,1,0,0,,
null,,356895,HierDyoxlnh4wk,osukwhqswx,ms1000272,iti,,null,img/motor_2.png,83,motor,,,,,,,
442,,357347,HierDyoxlnh4wk,osukwhqswx,ms1000272,motor,,65,img/motor_1.png,65,motor,1,381,1,0,0,,
null,,357455,HierDyoxlnh4wk,osukwhqswx,ms1000272,iti,,null,img/motor_1.png,65,motor,,,,,,,
522,,357987,HierDyoxlnh4wk,osukwhqswx,ms1000272,motor,,75,img/motor_7.png,75,motor,7,382,1,0,0,,
null,,358096,HierDyoxlnh4wk,osukwhqswx,ms1000272,iti,,null,img/motor_7.png,75,motor,,,,,,,
474,,358586,HierDyoxlnh4wk,osukwhqswx,ms1000272,motor,,83,img/motor_3.png,68,motor,3,383,0,1,0,,
223,,358826,HierDyoxlnh4wk,osukwhqswx,ms1000272,motorRepeat,,68,img/motor_3.png,68,motor,3,383,1,0,0,,
null,,358936,HierDyoxlnh4wk,osukwhqswx,ms1000272,iti,,null,img/motor_3.png,68,motor,,,,,,,
643,,359587,HierDyoxlnh4wk,osukwhqswx,ms1000272,motor,,70,img/motor_4.png,70,motor,4,384,1,0,0,,
null,,359704,HierDyoxlnh4wk,osukwhqswx,ms1000272,iti,,null,img/motor_4.png,70,motor,,,,,,,
491,,360204,HierDyoxlnh4wk,osukwhqswx,ms1000272,motor,,76,img/motor_8.png,76,motor,8,385,1,0,0,,
null,,360320,HierDyoxlnh4wk,osukwhqswx,ms1000272,iti,,null,img/motor_8.png,76,motor,,,,,,,
419,,360755,HierDyoxlnh4wk,osukwhqswx,ms1000272,motor,,74,img/motor_6.png,74,motor,6,386,1,0,0,,
null,,360870,HierDyoxlnh4wk,osukwhqswx,ms1000272,iti,,null,img/motor_6.png,74,motor,,,,,,,
380,,361267,HierDyoxlnh4wk,osukwhqswx,ms1000272,motor,,74,img/motor_6.png,74,motor,6,387,1,0,0,,
null,,361382,HierDyoxlnh4wk,osukwhqswx,ms1000272,iti,,null,img/motor_6.png,74,motor,,,,,,,
403,,361795,HierDyoxlnh4wk,osukwhqswx,ms1000272,motor,,72,img/motor_5.png,72,motor,5,388,1,0,0,,
null,,361910,HierDyoxlnh4wk,osukwhqswx,ms1000272,iti,,null,img/motor_5.png,72,motor,,,,,,,
371,,362298,HierDyoxlnh4wk,osukwhqswx,ms1000272,motor,,72,img/motor_5.png,72,motor,5,389,1,0,0,,
null,,362407,HierDyoxlnh4wk,osukwhqswx,ms1000272,iti,,null,img/motor_5.png,72,motor,,,,,,,
388,,362804,HierDyoxlnh4wk,osukwhqswx,ms1000272,motor,,70,img/motor_4.png,70,motor,4,390,1,0,0,,
null,,362919,HierDyoxlnh4wk,osukwhqswx,ms1000272,iti,,null,img/motor_4.png,70,motor,,,,,,,
404,,363337,HierDyoxlnh4wk,osukwhqswx,ms1000272,motor,,65,img/motor_1.png,65,motor,1,391,1,0,0,,
null,,363447,HierDyoxlnh4wk,osukwhqswx,ms1000272,iti,,null,img/motor_1.png,65,motor,,,,,,,
451,,363913,HierDyoxlnh4wk,osukwhqswx,ms1000272,motor,,72,img/motor_5.png,72,motor,5,392,1,0,0,,
null,,364030,HierDyoxlnh4wk,osukwhqswx,ms1000272,iti,,null,img/motor_5.png,72,motor,,,,,,,
413,,364458,HierDyoxlnh4wk,osukwhqswx,ms1000272,motor,,76,img/motor_8.png,76,motor,8,393,1,0,0,,
null,,364573,HierDyoxlnh4wk,osukwhqswx,ms1000272,iti,,null,img/motor_8.png,76,motor,,,,,,,
339,,364930,HierDyoxlnh4wk,osukwhqswx,ms1000272,motor,,72,img/motor_5.png,72,motor,5,394,1,0,0,,
null,,365040,HierDyoxlnh4wk,osukwhqswx,ms1000272,iti,,null,img/motor_5.png,72,motor,,,,,,,
492,,365540,HierDyoxlnh4wk,osukwhqswx,ms1000272,motor,,75,img/motor_7.png,75,motor,7,395,1,0,0,,
null,,365648,HierDyoxlnh4wk,osukwhqswx,ms1000272,iti,,null,img/motor_7.png,75,motor,,,,,,,
482,,366147,HierDyoxlnh4wk,osukwhqswx,ms1000272,motor,,74,img/motor_6.png,74,motor,6,396,1,0,0,,
null,,366262,HierDyoxlnh4wk,osukwhqswx,ms1000272,iti,,null,img/motor_6.png,74,motor,,,,,,,
492,,366769,HierDyoxlnh4wk,osukwhqswx,ms1000272,motor,,70,img/motor_4.png,70,motor,4,397,1,0,0,,
null,,366886,HierDyoxlnh4wk,osukwhqswx,ms1000272,iti,,null,img/motor_4.png,70,motor,,,,,,,
539,,367434,HierDyoxlnh4wk,osukwhqswx,ms1000272,motor,,83,img/motor_2.png,83,motor,2,398,1,0,0,,
null,,367543,HierDyoxlnh4wk,osukwhqswx,ms1000272,iti,,null,img/motor_2.png,83,motor,,,,,,,
379,,367932,HierDyoxlnh4wk,osukwhqswx,ms1000272,motor,,83,img/motor_2.png,83,motor,2,399,1,0,0,,
null,,368041,HierDyoxlnh4wk,osukwhqswx,ms1000272,iti,,null,img/motor_2.png,83,motor,,,,,,,
547,,368602,HierDyoxlnh4wk,osukwhqswx,ms1000272,motor,,74,img/motor_6.png,74,motor,6,400,1,0,0,,
null,,368712,HierDyoxlnh4wk,osukwhqswx,ms1000272,iti,,null,img/motor_6.png,74,motor,,,,,,,
531,,369252,HierDyoxlnh4wk,osukwhqswx,ms1000272,motor,,72,img/motor_5.png,72,motor,5,401,1,0,0,,
null,,369361,HierDyoxlnh4wk,osukwhqswx,ms1000272,iti,,null,img/motor_5.png,72,motor,,,,,,,
457,,369828,HierDyoxlnh4wk,osukwhqswx,ms1000272,motor,,65,img/motor_1.png,65,motor,1,402,1,0,0,,
null,,369937,HierDyoxlnh4wk,osukwhqswx,ms1000272,iti,,null,img/motor_1.png,65,motor,,,,,,,
410,,370363,HierDyoxlnh4wk,osukwhqswx,ms1000272,motor,,70,img/motor_4.png,70,motor,4,403,1,0,0,,
null,,370479,HierDyoxlnh4wk,osukwhqswx,ms1000272,iti,,null,img/motor_4.png,70,motor,,,,,,,
436,,370930,HierDyoxlnh4wk,osukwhqswx,ms1000272,motor,,72,img/motor_5.png,72,motor,5,404,1,0,0,,
null,,371047,HierDyoxlnh4wk,osukwhqswx,ms1000272,iti,,null,img/motor_5.png,72,motor,,,,,,,
411,,371474,HierDyoxlnh4wk,osukwhqswx,ms1000272,motor,,70,img/motor_4.png,70,motor,4,405,1,0,0,,
null,,371584,HierDyoxlnh4wk,osukwhqswx,ms1000272,iti,,null,img/motor_4.png,70,motor,,,,,,,
451,,372050,HierDyoxlnh4wk,osukwhqswx,ms1000272,motor,,83,img/motor_2.png,83,motor,2,406,1,0,0,,
null,,372160,HierDyoxlnh4wk,osukwhqswx,ms1000272,iti,,null,img/motor_2.png,83,motor,,,,,,,
524,,372692,HierDyoxlnh4wk,osukwhqswx,ms1000272,motor,,68,img/motor_3.png,68,motor,3,407,1,0,0,,
null,,372801,HierDyoxlnh4wk,osukwhqswx,ms1000272,iti,,null,img/motor_3.png,68,motor,,,,,,,
369,,373179,HierDyoxlnh4wk,osukwhqswx,ms1000272,motor,,68,img/motor_3.png,68,motor,3,408,1,0,0,,
null,,373288,HierDyoxlnh4wk,osukwhqswx,ms1000272,iti,,null,img/motor_3.png,68,motor,,,,,,,
514,,373819,HierDyoxlnh4wk,osukwhqswx,ms1000272,motor,,74,img/motor_6.png,74,motor,6,409,1,0,0,,
null,,373928,HierDyoxlnh4wk,osukwhqswx,ms1000272,iti,,null,img/motor_6.png,74,motor,,,,,,,
387,,374331,HierDyoxlnh4wk,osukwhqswx,ms1000272,motor,,76,img/motor_8.png,76,motor,8,410,1,0,0,,
null,,374446,HierDyoxlnh4wk,osukwhqswx,ms1000272,iti,,null,img/motor_8.png,76,motor,,,,,,,
764,,375219,HierDyoxlnh4wk,osukwhqswx,ms1000272,motor,,68,img/motor_2.png,83,motor,2,411,0,1,0,,
239,,375474,HierDyoxlnh4wk,osukwhqswx,ms1000272,motorRepeat,,83,img/motor_2.png,83,motor,2,411,1,0,0,,
null,,375583,HierDyoxlnh4wk,osukwhqswx,ms1000272,iti,,null,img/motor_2.png,83,motor,,,,,,,
620,,376219,HierDyoxlnh4wk,osukwhqswx,ms1000272,motor,,68,img/motor_3.png,68,motor,3,412,1,0,0,,
null,,376329,HierDyoxlnh4wk,osukwhqswx,ms1000272,iti,,null,img/motor_3.png,68,motor,,,,,,,
484,,376820,HierDyoxlnh4wk,osukwhqswx,ms1000272,motor,,65,img/motor_1.png,65,motor,1,413,1,0,0,,
null,,376929,HierDyoxlnh4wk,osukwhqswx,ms1000272,iti,,null,img/motor_1.png,65,motor,,,,,,,
410,,377355,HierDyoxlnh4wk,osukwhqswx,ms1000272,motor,,72,img/motor_5.png,72,motor,5,414,1,0,0,,
null,,377471,HierDyoxlnh4wk,osukwhqswx,ms1000272,iti,,null,img/motor_5.png,72,motor,,,,,,,
420,,377907,HierDyoxlnh4wk,osukwhqswx,ms1000272,motor,,74,img/motor_6.png,74,motor,6,415,1,0,0,,
null,,378023,HierDyoxlnh4wk,osukwhqswx,ms1000272,iti,,null,img/motor_6.png,74,motor,,,,,,,
845,,378882,HierDyoxlnh4wk,osukwhqswx,ms1000272,motor,,68,img/motor_3.png,68,motor,3,416,1,0,0,,
null,,378992,HierDyoxlnh4wk,osukwhqswx,ms1000272,iti,,null,img/motor_3.png,68,motor,,,,,,,
1107,,380106,HierDyoxlnh4wk,osukwhqswx,ms1000272,motor,,72,img/motor_5.png,72,motor,5,417,1,0,0,,
null,,380222,HierDyoxlnh4wk,osukwhqswx,ms1000272,iti,,null,img/motor_5.png,72,motor,,,,,,,
348,,380587,HierDyoxlnh4wk,osukwhqswx,ms1000272,motor,,74,img/motor_6.png,74,motor,6,418,1,0,0,,
null,,380703,HierDyoxlnh4wk,osukwhqswx,ms1000272,iti,,null,img/motor_6.png,74,motor,,,,,,,
572,,381290,HierDyoxlnh4wk,osukwhqswx,ms1000272,motor,,70,img/motor_4.png,70,motor,4,419,1,0,0,,
null,,381407,HierDyoxlnh4wk,osukwhqswx,ms1000272,iti,,null,img/motor_4.png,70,motor,,,,,,,
460,,381876,HierDyoxlnh4wk,osukwhqswx,ms1000272,motor,,76,img/motor_8.png,76,motor,8,420,1,0,0,,
null,,381991,HierDyoxlnh4wk,osukwhqswx,ms1000272,iti,,null,img/motor_8.png,76,motor,,,,,,,
467,,382466,HierDyoxlnh4wk,osukwhqswx,ms1000272,motor,,74,img/motor_6.png,74,motor,6,421,1,0,0,,
null,,382576,HierDyoxlnh4wk,osukwhqswx,ms1000272,iti,,null,img/motor_6.png,74,motor,,,,,,,
380,,382963,HierDyoxlnh4wk,osukwhqswx,ms1000272,motor,,76,img/motor_8.png,76,motor,8,422,1,0,0,,
null,,383079,HierDyoxlnh4wk,osukwhqswx,ms1000272,iti,,null,img/motor_8.png,76,motor,,,,,,,
532,,383619,HierDyoxlnh4wk,osukwhqswx,ms1000272,motor,,68,img/motor_3.png,68,motor,3,423,1,0,0,,
null,,383728,HierDyoxlnh4wk,osukwhqswx,ms1000272,iti,,null,img/motor_3.png,68,motor,,,,,,,
459,,384195,HierDyoxlnh4wk,osukwhqswx,ms1000272,motor,,65,img/motor_1.png,65,motor,1,424,1,0,0,,
null,,384310,HierDyoxlnh4wk,osukwhqswx,ms1000272,iti,,null,img/motor_1.png,65,motor,,,,,,,
411,,384732,HierDyoxlnh4wk,osukwhqswx,ms1000272,motor,,72,img/motor_5.png,72,motor,5,425,1,0,0,,
null,,384847,HierDyoxlnh4wk,osukwhqswx,ms1000272,iti,,null,img/motor_5.png,72,motor,,,,,,,
434,,385291,HierDyoxlnh4wk,osukwhqswx,ms1000272,motor,,65,img/motor_1.png,65,motor,1,426,1,0,0,,
null,,385407,HierDyoxlnh4wk,osukwhqswx,ms1000272,iti,,null,img/motor_1.png,65,motor,,,,,,,
499,,385922,HierDyoxlnh4wk,osukwhqswx,ms1000272,motor,,74,img/motor_7.png,75,motor,7,427,0,1,0,,
264,,386202,HierDyoxlnh4wk,osukwhqswx,ms1000272,motorRepeat,,75,img/motor_7.png,75,motor,7,427,1,0,0,,
null,,386319,HierDyoxlnh4wk,osukwhqswx,ms1000272,iti,,null,img/motor_7.png,75,motor,,,,,,,
412,,386746,HierDyoxlnh4wk,osukwhqswx,ms1000272,motor,,70,img/motor_4.png,70,motor,4,428,1,0,0,,
null,,386856,HierDyoxlnh4wk,osukwhqswx,ms1000272,iti,,null,img/motor_4.png,70,motor,,,,,,,
587,,387451,HierDyoxlnh4wk,osukwhqswx,ms1000272,motor,,83,img/motor_2.png,83,motor,2,429,1,0,0,,
null,,387567,HierDyoxlnh4wk,osukwhqswx,ms1000272,iti,,null,img/motor_2.png,83,motor,,,,,,,
491,,388074,HierDyoxlnh4wk,osukwhqswx,ms1000272,motor,,76,img/motor_8.png,76,motor,8,430,1,0,0,,
null,,388183,HierDyoxlnh4wk,osukwhqswx,ms1000272,iti,,null,img/motor_8.png,76,motor,,,,,,,
572,,388762,HierDyoxlnh4wk,osukwhqswx,ms1000272,motor,,68,img/motor_3.png,68,motor,3,431,1,0,0,,
null,,388878,HierDyoxlnh4wk,osukwhqswx,ms1000272,iti,,null,img/motor_3.png,68,motor,,,,,,,
445,,389338,HierDyoxlnh4wk,osukwhqswx,ms1000272,motor,,70,img/motor_4.png,70,motor,4,432,1,0,0,,
null,,389454,HierDyoxlnh4wk,osukwhqswx,ms1000272,iti,,null,img/motor_4.png,70,motor,,,,,,,
420,,389883,HierDyoxlnh4wk,osukwhqswx,ms1000272,motor,,65,img/motor_1.png,65,motor,1,433,1,0,0,,
null,,389993,HierDyoxlnh4wk,osukwhqswx,ms1000272,iti,,null,img/motor_1.png,65,motor,,,,,,,
369,,390384,HierDyoxlnh4wk,osukwhqswx,ms1000272,motor,,70,img/motor_4.png,70,motor,4,434,1,0,0,,
null,,390494,HierDyoxlnh4wk,osukwhqswx,ms1000272,iti,,null,img/motor_4.png,70,motor,,,,,,,
444,,390955,HierDyoxlnh4wk,osukwhqswx,ms1000272,motor,,68,img/motor_3.png,68,motor,3,435,1,0,0,,
null,,391072,HierDyoxlnh4wk,osukwhqswx,ms1000272,iti,,null,img/motor_3.png,68,motor,,,,,,,
418,,391507,HierDyoxlnh4wk,osukwhqswx,ms1000272,motor,,70,img/motor_3.png,68,motor,3,436,0,1,0,,
279,,391804,HierDyoxlnh4wk,osukwhqswx,ms1000272,motorRepeat,,68,img/motor_3.png,68,motor,3,436,1,0,0,,
null,,391914,HierDyoxlnh4wk,osukwhqswx,ms1000272,iti,,null,img/motor_3.png,68,motor,,,,,,,
617,,392540,HierDyoxlnh4wk,osukwhqswx,ms1000272,motor,,75,img/motor_7.png,75,motor,7,437,1,0,0,,
null,,392655,HierDyoxlnh4wk,osukwhqswx,ms1000272,iti,,null,img/motor_7.png,75,motor,,,,,,,
436,,393107,HierDyoxlnh4wk,osukwhqswx,ms1000272,motor,,74,img/motor_6.png,74,motor,6,438,1,0,0,,
null,,393224,HierDyoxlnh4wk,osukwhqswx,ms1000272,iti,,null,img/motor_6.png,74,motor,,,,,,,
642,,393876,HierDyoxlnh4wk,osukwhqswx,ms1000272,motor,,83,img/motor_2.png,83,motor,2,439,1,0,0,,
null,,393991,HierDyoxlnh4wk,osukwhqswx,ms1000272,iti,,null,img/motor_2.png,83,motor,,,,,,,
499,,394500,HierDyoxlnh4wk,osukwhqswx,ms1000272,motor,,72,img/motor_5.png,72,motor,5,440,1,0,0,,
null,,394609,HierDyoxlnh4wk,osukwhqswx,ms1000272,iti,,null,img/motor_5.png,72,motor,,,,,,,
498,,395122,HierDyoxlnh4wk,osukwhqswx,ms1000272,motor,,83,img/motor_2.png,83,motor,2,441,1,0,0,,
null,,395232,HierDyoxlnh4wk,osukwhqswx,ms1000272,iti,,null,img/motor_2.png,83,motor,,,,,,,
499,,395740,HierDyoxlnh4wk,osukwhqswx,ms1000272,motor,,72,img/motor_5.png,72,motor,5,442,1,0,0,,
null,,395855,HierDyoxlnh4wk,osukwhqswx,ms1000272,iti,,null,img/motor_5.png,72,motor,,,,,,,
380,,396243,HierDyoxlnh4wk,osukwhqswx,ms1000272,motor,,72,img/motor_5.png,72,motor,5,443,1,0,0,,
null,,396352,HierDyoxlnh4wk,osukwhqswx,ms1000272,iti,,null,img/motor_5.png,72,motor,,,,,,,
563,,396931,HierDyoxlnh4wk,osukwhqswx,ms1000272,motor,,68,img/motor_3.png,68,motor,3,444,1,0,0,,
null,,397041,HierDyoxlnh4wk,osukwhqswx,ms1000272,iti,,null,img/motor_3.png,68,motor,,,,,,,
514,,397571,HierDyoxlnh4wk,osukwhqswx,ms1000272,motor,,83,img/motor_2.png,83,motor,2,445,1,0,0,,
null,,397680,HierDyoxlnh4wk,osukwhqswx,ms1000272,iti,,null,img/motor_2.png,83,motor,,,,,,,
515,,398204,HierDyoxlnh4wk,osukwhqswx,ms1000272,motor,,76,img/motor_8.png,76,motor,8,446,1,0,0,,
null,,398319,HierDyoxlnh4wk,osukwhqswx,ms1000272,iti,,null,img/motor_8.png,76,motor,,,,,,,
500,,398835,HierDyoxlnh4wk,osukwhqswx,ms1000272,motor,,70,img/motor_4.png,70,motor,4,447,1,0,0,,
null,,398952,HierDyoxlnh4wk,osukwhqswx,ms1000272,iti,,null,img/motor_4.png,70,motor,,,,,,,
675,,399642,HierDyoxlnh4wk,osukwhqswx,ms1000272,motor,,74,img/motor_6.png,74,motor,6,448,1,0,0,,
null,,399758,HierDyoxlnh4wk,osukwhqswx,ms1000272,iti,,null,img/motor_6.png,74,motor,,,,,,,
627,,400403,HierDyoxlnh4wk,osukwhqswx,ms1000272,motor,,68,img/motor_3.png,68,motor,3,449,1,0,0,,
null,,400512,HierDyoxlnh4wk,osukwhqswx,ms1000272,iti,,null,img/motor_3.png,68,motor,,,,,,,
483,,401003,HierDyoxlnh4wk,osukwhqswx,ms1000272,motor,,65,img/motor_1.png,65,motor,1,450,1,0,0,,
null,,401118,HierDyoxlnh4wk,osukwhqswx,ms1000272,iti,,null,img/motor_1.png,65,motor,,,,,,,
756,,401890,HierDyoxlnh4wk,osukwhqswx,ms1000272,motor,,83,img/motor_2.png,83,motor,2,451,1,0,0,,
null,,402007,HierDyoxlnh4wk,osukwhqswx,ms1000272,iti,,null,img/motor_2.png,83,motor,,,,,,,
500,,402515,HierDyoxlnh4wk,osukwhqswx,ms1000272,motor,,65,img/motor_1.png,65,motor,1,452,1,0,0,,
null,,402631,HierDyoxlnh4wk,osukwhqswx,ms1000272,iti,,null,img/motor_1.png,65,motor,,,,,,,
435,,403074,HierDyoxlnh4wk,osukwhqswx,ms1000272,motor,,83,img/motor_2.png,83,motor,2,453,1,0,0,,
null,,403190,HierDyoxlnh4wk,osukwhqswx,ms1000272,iti,,null,img/motor_2.png,83,motor,,,,,,,
661,,403859,HierDyoxlnh4wk,osukwhqswx,ms1000272,motor,,68,img/motor_3.png,68,motor,3,454,1,0,0,,
null,,403976,HierDyoxlnh4wk,osukwhqswx,ms1000272,iti,,null,img/motor_3.png,68,motor,,,,,,,
588,,404579,HierDyoxlnh4wk,osukwhqswx,ms1000272,motor,,75,img/motor_7.png,75,motor,7,455,1,0,0,,
null,,404688,HierDyoxlnh4wk,osukwhqswx,ms1000272,iti,,null,img/motor_7.png,75,motor,,,,,,,
556,,405259,HierDyoxlnh4wk,osukwhqswx,ms1000272,motor,,65,img/motor_1.png,65,motor,1,456,1,0,0,,
null,,405368,HierDyoxlnh4wk,osukwhqswx,ms1000272,iti,,null,img/motor_1.png,65,motor,,,,,,,
539,,405923,HierDyoxlnh4wk,osukwhqswx,ms1000272,motor,,70,img/motor_4.png,70,motor,4,457,1,0,0,,
null,,406033,HierDyoxlnh4wk,osukwhqswx,ms1000272,iti,,null,img/motor_4.png,70,motor,,,,,,,
369,,406412,HierDyoxlnh4wk,osukwhqswx,ms1000272,motor,,72,img/motor_5.png,72,motor,5,458,1,0,0,,
null,,406528,HierDyoxlnh4wk,osukwhqswx,ms1000272,iti,,null,img/motor_5.png,72,motor,,,,,,,
539,,407083,HierDyoxlnh4wk,osukwhqswx,ms1000272,motor,,65,img/motor_1.png,65,motor,1,459,1,0,0,,
null,,407199,HierDyoxlnh4wk,osukwhqswx,ms1000272,iti,,null,img/motor_1.png,65,motor,,,,,,,
387,,407596,HierDyoxlnh4wk,osukwhqswx,ms1000272,motor,,65,img/motor_1.png,65,motor,1,460,1,0,0,,
null,,407712,HierDyoxlnh4wk,osukwhqswx,ms1000272,iti,,null,img/motor_1.png,65,motor,,,,,,,
531,,408259,HierDyoxlnh4wk,osukwhqswx,ms1000272,motor,,74,img/motor_6.png,74,motor,6,461,1,0,0,,
null,,408375,HierDyoxlnh4wk,osukwhqswx,ms1000272,iti,,null,img/motor_6.png,74,motor,,,,,,,
843,,409227,HierDyoxlnh4wk,osukwhqswx,ms1000272,motor,,83,img/motor_2.png,83,motor,2,462,1,0,0,,
null,,409342,HierDyoxlnh4wk,osukwhqswx,ms1000272,iti,,null,img/motor_2.png,83,motor,,,,,,,
523,,409876,HierDyoxlnh4wk,osukwhqswx,ms1000272,motor,,76,img/motor_8.png,76,motor,8,463,1,0,0,,
null,,409992,HierDyoxlnh4wk,osukwhqswx,ms1000272,iti,,null,img/motor_8.png,76,motor,,,,,,,
611,,410612,HierDyoxlnh4wk,osukwhqswx,ms1000272,motor,,65,img/motor_1.png,65,motor,1,464,1,0,0,,
null,,410728,HierDyoxlnh4wk,osukwhqswx,ms1000272,iti,,null,img/motor_1.png,65,motor,,,,,,,
499,,411236,HierDyoxlnh4wk,osukwhqswx,ms1000272,motor,,65,img/motor_1.png,65,motor,1,465,1,0,0,,
null,,411345,HierDyoxlnh4wk,osukwhqswx,ms1000272,iti,,null,img/motor_1.png,65,motor,,,,,,,
602,,411956,HierDyoxlnh4wk,osukwhqswx,ms1000272,motor,,75,img/motor_7.png,75,motor,7,466,1,0,0,,
null,,412072,HierDyoxlnh4wk,osukwhqswx,ms1000272,iti,,null,img/motor_7.png,75,motor,,,,,,,
819,,412900,HierDyoxlnh4wk,osukwhqswx,ms1000272,motor,,68,img/motor_3.png,68,motor,3,467,1,0,0,,
null,,413009,HierDyoxlnh4wk,osukwhqswx,ms1000272,iti,,null,img/motor_3.png,68,motor,,,,,,,
578,,413596,HierDyoxlnh4wk,osukwhqswx,ms1000272,motor,,75,img/motor_7.png,75,motor,7,468,1,0,0,,
null,,413712,HierDyoxlnh4wk,osukwhqswx,ms1000272,iti,,null,img/motor_7.png,75,motor,,,,,,,
610,,414339,HierDyoxlnh4wk,osukwhqswx,ms1000272,motor,,83,img/motor_2.png,83,motor,2,469,1,0,0,,
null,,414455,HierDyoxlnh4wk,osukwhqswx,ms1000272,iti,,null,img/motor_2.png,83,motor,,,,,,,
427,,414899,HierDyoxlnh4wk,osukwhqswx,ms1000272,motor,,75,img/motor_6.png,74,motor,6,470,0,1,0,,
311,,415220,HierDyoxlnh4wk,osukwhqswx,ms1000272,motorRepeat,,74,img/motor_6.png,74,motor,6,470,1,0,0,,
null,,415329,HierDyoxlnh4wk,osukwhqswx,ms1000272,iti,,null,img/motor_6.png,74,motor,,,,,,,
659,,415996,HierDyoxlnh4wk,osukwhqswx,ms1000272,motor,,72,img/motor_5.png,72,motor,5,471,1,0,0,,
null,,416105,HierDyoxlnh4wk,osukwhqswx,ms1000272,iti,,null,img/motor_5.png,72,motor,,,,,,,
554,,416674,HierDyoxlnh4wk,osukwhqswx,ms1000272,motor,,75,img/motor_7.png,75,motor,7,472,1,0,0,,
null,,416783,HierDyoxlnh4wk,osukwhqswx,ms1000272,iti,,null,img/motor_7.png,75,motor,,,,,,,
636,,417428,HierDyoxlnh4wk,osukwhqswx,ms1000272,motor,,68,img/motor_3.png,68,motor,3,473,1,0,0,,
null,,417538,HierDyoxlnh4wk,osukwhqswx,ms1000272,iti,,null,img/motor_3.png,68,motor,,,,,,,
570,,418116,HierDyoxlnh4wk,osukwhqswx,ms1000272,motor,,76,img/motor_8.png,76,motor,8,474,1,0,0,,
null,,418225,HierDyoxlnh4wk,osukwhqswx,ms1000272,iti,,null,img/motor_8.png,76,motor,,,,,,,
626,,418860,HierDyoxlnh4wk,osukwhqswx,ms1000272,motor,,83,img/motor_2.png,83,motor,2,475,1,0,0,,
null,,418969,HierDyoxlnh4wk,osukwhqswx,ms1000272,iti,,null,img/motor_2.png,83,motor,,,,,,,
507,,419491,HierDyoxlnh4wk,osukwhqswx,ms1000272,motor,,68,img/motor_3.png,68,motor,3,476,1,0,0,,
null,,419607,HierDyoxlnh4wk,osukwhqswx,ms1000272,iti,,null,img/motor_3.png,68,motor,,,,,,,
508,,420131,HierDyoxlnh4wk,osukwhqswx,ms1000272,motor,,83,img/motor_2.png,83,motor,2,477,1,0,0,,
null,,420247,HierDyoxlnh4wk,osukwhqswx,ms1000272,iti,,null,img/motor_2.png,83,motor,,,,,,,
492,,420754,HierDyoxlnh4wk,osukwhqswx,ms1000272,motor,,65,img/motor_1.png,65,motor,1,478,1,0,0,,
null,,420864,HierDyoxlnh4wk,osukwhqswx,ms1000272,iti,,null,img/motor_1.png,65,motor,,,,,,,
499,,421372,HierDyoxlnh4wk,osukwhqswx,ms1000272,motor,,76,img/motor_8.png,76,motor,8,479,1,0,0,,
null,,421488,HierDyoxlnh4wk,osukwhqswx,ms1000272,iti,,null,img/motor_8.png,76,motor,,,,,,,
523,,422020,HierDyoxlnh4wk,osukwhqswx,ms1000272,motor,,70,img/motor_4.png,70,motor,4,480,1,0,0,,
null,,422129,HierDyoxlnh4wk,osukwhqswx,ms1000272,iti,,null,img/motor_4.png,70,motor,,,,,,,
419,,422563,HierDyoxlnh4wk,osukwhqswx,ms1000272,motor,,70,img/motor_4.png,70,motor,4,481,1,0,0,,
null,,422680,HierDyoxlnh4wk,osukwhqswx,ms1000272,iti,,null,img/motor_4.png,70,motor,,,,,,,
514,,423204,HierDyoxlnh4wk,osukwhqswx,ms1000272,motor,,68,img/motor_3.png,68,motor,3,482,1,0,0,,
null,,423320,HierDyoxlnh4wk,osukwhqswx,ms1000272,iti,,null,img/motor_3.png,68,motor,,,,,,,
434,,423772,HierDyoxlnh4wk,osukwhqswx,ms1000272,motor,,70,img/motor_4.png,70,motor,4,483,1,0,0,,
null,,423888,HierDyoxlnh4wk,osukwhqswx,ms1000272,iti,,null,img/motor_4.png,70,motor,,,,,,,
482,,424387,HierDyoxlnh4wk,osukwhqswx,ms1000272,motor,,74,img/motor_6.png,74,motor,6,484,1,0,0,,
null,,424497,HierDyoxlnh4wk,osukwhqswx,ms1000272,iti,,null,img/motor_6.png,74,motor,,,,,,,
411,,424916,HierDyoxlnh4wk,osukwhqswx,ms1000272,motor,,74,img/motor_6.png,74,motor,6,485,1,0,0,,
null,,425025,HierDyoxlnh4wk,osukwhqswx,ms1000272,iti,,null,img/motor_6.png,74,motor,,,,,,,
506,,425548,HierDyoxlnh4wk,osukwhqswx,ms1000272,motor,,65,img/motor_1.png,65,motor,1,486,1,0,0,,
null,,425663,HierDyoxlnh4wk,osukwhqswx,ms1000272,iti,,null,img/motor_1.png,65,motor,,,,,,,
476,,426155,HierDyoxlnh4wk,osukwhqswx,ms1000272,motor,,76,img/motor_8.png,76,motor,8,487,1,0,0,,
null,,426272,HierDyoxlnh4wk,osukwhqswx,ms1000272,iti,,null,img/motor_8.png,76,motor,,,,,,,
66413,,492705,HierDyoxlnh4wk,osukwhqswx,ms1000272,,,,,,,,,,,,,
1761,,494484,HierDyoxlnh4wk,osukwhqswx,ms1000272,prac,,72,img/image3.bmp,74,prac,,,0,,,1,
null,,495247,HierDyoxlnh4wk,osukwhqswx,ms1000272,feedback,,null,,na,prac,,,,,,,
1557,,496812,HierDyoxlnh4wk,osukwhqswx,ms1000272,prac,,75,img/image4.bmp,75,prac,,,1,,,1,
null,,497572,HierDyoxlnh4wk,osukwhqswx,ms1000272,feedback,,null,,na,prac,,,,,,,
1144,,498725,HierDyoxlnh4wk,osukwhqswx,ms1000272,prac,,74,img/image5.bmp,72,prac,,,0,,,2,
null,,499485,HierDyoxlnh4wk,osukwhqswx,ms1000272,feedback,,null,,na,prac,,,,,,,
655,,500156,HierDyoxlnh4wk,osukwhqswx,ms1000272,prac,,75,img/image4.bmp,75,prac,,,1,,,2,
null,,500916,HierDyoxlnh4wk,osukwhqswx,ms1000272,feedback,,null,,na,prac,,,,,,,
816,,501748,HierDyoxlnh4wk,osukwhqswx,ms1000272,prac,,75,img/image4.bmp,75,prac,,,1,,,2,
null,,502508,HierDyoxlnh4wk,osukwhqswx,ms1000272,feedback,,null,,na,prac,,,,,,,
464,,502988,HierDyoxlnh4wk,osukwhqswx,ms1000272,prac,,72,img/image3.bmp,74,prac,,,0,,,3,
null,,503755,HierDyoxlnh4wk,osukwhqswx,ms1000272,feedback,,null,,na,prac,,,,,,,
791,,504557,HierDyoxlnh4wk,osukwhqswx,ms1000272,prac,,72,img/image5.bmp,72,prac,,,1,,,3,
null,,505317,HierDyoxlnh4wk,osukwhqswx,ms1000272,feedback,,null,,na,prac,,,,,,,
624,,505948,HierDyoxlnh4wk,osukwhqswx,ms1000272,prac,,75,img/image4.bmp,75,prac,,,1,,,3,
null,,506708,HierDyoxlnh4wk,osukwhqswx,ms1000272,feedback,,null,,na,prac,,,,,,,
18049,,524768,HierDyoxlnh4wk,osukwhqswx,ms1000272,,,,,,prac,,,,,,,
7580,,532364,HierDyoxlnh4wk,osukwhqswx,ms1000272,,,32,,,,,,,,,,
2246,,534621,HierDyoxlnh4wk,osukwhqswx,ms1000272,,,,,,prac,,,,,,,
2287,,536924,HierDyoxlnh4wk,osukwhqswx,ms1000272,rl,,72,img/r_t_stripes.png,65,test,1,1,0,,,,pattern;color;shape
null,,537942,HierDyoxlnh4wk,osukwhqswx,ms1000272,feedback,,null,,na,test,,,,,,,
null,,540463,HierDyoxlnh4wk,osukwhqswx,ms1000272,rl,,null,img/b_t_check.png,75,test,7,NaN,0,,,,pattern;color;shape
null,,541482,HierDyoxlnh4wk,osukwhqswx,ms1000272,feedback,,null,,na,test,,,,,,,
1425,,542924,HierDyoxlnh4wk,osukwhqswx,ms1000272,rl,,83,img/r_t_check.png,72,test,5,NaN,0,,,,pattern;color;shape
null,,543941,HierDyoxlnh4wk,osukwhqswx,ms1000272,feedback,,null,,na,test,,,,,,,
1103,,545054,HierDyoxlnh4wk,osukwhqswx,ms1000272,rl,,75,img/b_t_stripes.png,68,test,3,NaN,0,,,,pattern;color;shape
null,,546070,HierDyoxlnh4wk,osukwhqswx,ms1000272,feedback,,null,,na,test,,,,,,,
1477,,547565,HierDyoxlnh4wk,osukwhqswx,ms1000272,rl,,83,img/r_d_stripes.png,83,test,2,NaN,1,,,,pattern;color;shape
null,,548583,HierDyoxlnh4wk,osukwhqswx,ms1000272,feedback,,null,,na,test,,,,,,,
909,,549508,HierDyoxlnh4wk,osukwhqswx,ms1000272,rl,,68,img/b_d_stripes.png,70,test,4,NaN,0,,,,pattern;color;shape
null,,550518,HierDyoxlnh4wk,osukwhqswx,ms1000272,feedback,,null,,na,test,,,,,,,
942,,551469,HierDyoxlnh4wk,osukwhqswx,ms1000272,rl,,65,img/b_d_check.png,76,test,8,NaN,0,,,,pattern;color;shape
null,,552478,HierDyoxlnh4wk,osukwhqswx,ms1000272,feedback,,null,,na,test,,,,,,,
1694,,554189,HierDyoxlnh4wk,osukwhqswx,ms1000272,rl,,76,img/r_t_check.png,72,test,5,NaN,0,,,,pattern;color;shape
null,,555206,HierDyoxlnh4wk,osukwhqswx,ms1000272,feedback,,null,,na,test,,,,,,,
982,,556197,HierDyoxlnh4wk,osukwhqswx,ms1000272,rl,,83,img/b_d_check.png,76,test,8,NaN,0,,,,pattern;color;shape
null,,557206,HierDyoxlnh4wk,osukwhqswx,ms1000272,feedback,,null,,na,test,,,,,,,
565,,557781,HierDyoxlnh4wk,osukwhqswx,ms1000272,rl,,83,img/r_d_check.png,74,test,6,NaN,0,,,,pattern;color;shape
null,,558798,HierDyoxlnh4wk,osukwhqswx,ms1000272,feedback,,null,,na,test,,,,,,,
806,,559620,HierDyoxlnh4wk,osukwhqswx,ms1000272,rl,,68,img/r_d_check.png,74,test,6,NaN,0,,,,pattern;color;shape
null,,560638,HierDyoxlnh4wk,osukwhqswx,ms1000272,feedback,,null,,na,test,,,,,,,
null,,563154,HierDyoxlnh4wk,osukwhqswx,ms1000272,rl,,null,img/b_t_check.png,75,test,7,NaN,0,,,,pattern;color;shape
null,,564164,HierDyoxlnh4wk,osukwhqswx,ms1000272,feedback,,null,,na,test,,,,,,,
2001,,566181,HierDyoxlnh4wk,osukwhqswx,ms1000272,rl,,76,img/r_d_stripes.png,83,test,2,NaN,0,,,,pattern;color;shape
null,,567197,HierDyoxlnh4wk,osukwhqswx,ms1000272,feedback,,null,,na,test,,,,,,,
775,,567987,HierDyoxlnh4wk,osukwhqswx,ms1000272,rl,,75,img/r_t_stripes.png,65,test,1,NaN,0,,,,pattern;color;shape
