"rt","time_elapsed","subject","subID","group","day","trialType","phase","key_press","stim","stimNum","corrresp","hierarchy","trialNum","corr","responses"
"53534.59999999404","53537","HierDyrannq4ku","sub02 ","02 ","7","","","","","","","","","",""
"","55377","HierDyrannq4ku","sub02 ","02 ","7","fullscreen","","","","","","","","",""
"5235.0999999940395","60614","HierDyrannq4ku","sub02 ","02 ","7","","prac","","","","","","","",""
"3766.7000000178814","64385","HierDyrannq4ku","sub02 ","02 ","7","","","32","","","","","","",""
"1431.0999999940395","65818","HierDyrannq4ku","sub02 ","02 ","7","","prac","","","","","","","",""
"1402.0999999940395","67224","HierDyrannq4ku","sub02 ","02 ","7","rl","test","72","img/o_t_check.png","5","72","color,shape,pattern","1","1",""
"null","68232","HierDyrannq4ku","sub02 ","02 ","7","feedback","test","null","","","na","","1","",""
"633.0999999940395","68868","HierDyrannq4ku","sub02 ","02 ","7","rl","test","76","img/o_d_diag.png","8","76","color,shape,pattern","2","1",""
"null","69875","HierDyrannq4ku","sub02 ","02 ","7","feedback","test","null","","","na","","2","",""
"622.2000000178814","70499","HierDyrannq4ku","sub02 ","02 ","7","rl","test","65","img/p_t_check.png","1","65","color,shape,pattern","3","1",""
"null","71504","HierDyrannq4ku","sub02 ","02 ","7","feedback","test","null","","","na","","3","",""
"615.9000000059605","72122","HierDyrannq4ku","sub02 ","02 ","7","rl","test","83","img/o_t_diag.png","6","74","color,shape,pattern","4","0",""
"null","73125","HierDyrannq4ku","sub02 ","02 ","7","feedback","test","null","","","na","","4","",""
"873.8000000119209","74001","HierDyrannq4ku","sub02 ","02 ","7","rl","test","70","img/p_d_diag.png","4","70","color,shape,pattern","5","1",""
"null","75004","HierDyrannq4ku","sub02 ","02 ","7","feedback","test","null","","","na","","5","",""
"701.8000000119209","75708","HierDyrannq4ku","sub02 ","02 ","7","rl","test","83","img/p_t_diag.png","2","83","color,shape,pattern","6","1",""
"null","76715","HierDyrannq4ku","sub02 ","02 ","7","feedback","test","null","","","na","","6","",""
"868.3999999761581","77586","HierDyrannq4ku","sub02 ","02 ","7","rl","test","75","img/o_d_check.png","7","75","color,shape,pattern","7","1",""
"null","78592","HierDyrannq4ku","sub02 ","02 ","7","feedback","test","null","","","na","","7","",""
"795.4000000059605","79389","HierDyrannq4ku","sub02 ","02 ","7","rl","test","68","img/p_d_check.png","3","68","color,shape,pattern","8","1",""
"null","80394","HierDyrannq4ku","sub02 ","02 ","7","feedback","test","null","","","na","","8","",""
"967.8000000119209","81364","HierDyrannq4ku","sub02 ","02 ","7","rl","test","83","img/p_t_diag.png","2","83","color,shape,pattern","9","1",""
"null","82372","HierDyrannq4ku","sub02 ","02 ","7","feedback","test","null","","","na","","9","",""
"570.5","82945","HierDyrannq4ku","sub02 ","02 ","7","rl","test","65","img/p_t_check.png","1","65","color,shape,pattern","10","1",""
"null","83952","HierDyrannq4ku","sub02 ","02 ","7","feedback","test","null","","","na","","10","",""
"808.1999999880791","84762","HierDyrannq4ku","sub02 ","02 ","7","rl","test","68","img/p_d_check.png","3","68","color,shape,pattern","11","1",""
"null","85766","HierDyrannq4ku","sub02 ","02 ","7","feedback","test","null","","","na","","11","",""
"723.3000000119209","86492","HierDyrannq4ku","sub02 ","02 ","7","rl","test","75","img/o_d_check.png","7","75","color,shape,pattern","12","1",""
"null","87499","HierDyrannq4ku","sub02 ","02 ","7","feedback","test","null","","","na","","12","",""
"549","88050","HierDyrannq4ku","sub02 ","02 ","7","rl","test","76","img/o_d_diag.png","8","76","color,shape,pattern","13","1",""
"null","89054","HierDyrannq4ku","sub02 ","02 ","7","feedback","test","null","","","na","","13","",""
"605","89661","HierDyrannq4ku","sub02 ","02 ","7","rl","test","72","img/o_t_check.png","5","72","color,shape,pattern","14","1",""
"null","90668","HierDyrannq4ku","sub02 ","02 ","7","feedback","test","null","","","na","","14","",""
"630.9000000059605","91301","HierDyrannq4ku","sub02 ","02 ","7","rl","test","72","img/o_t_check.png","5","72","color,shape,pattern","15","1",""
"null","92304","HierDyrannq4ku","sub02 ","02 ","7","feedback","test","null","","","na","","15","",""
"768.0999999940395","93074","HierDyrannq4ku","sub02 ","02 ","7","rl","test","74","img/o_t_diag.png","6","74","color,shape,pattern","16","1",""
"null","94080","HierDyrannq4ku","sub02 ","02 ","7","feedback","test","null","","","na","","16","",""
"581.5999999940395","94663","HierDyrannq4ku","sub02 ","02 ","7","rl","test","76","img/o_d_diag.png","8","76","color,shape,pattern","17","1",""
"null","95671","HierDyrannq4ku","sub02 ","02 ","7","feedback","test","null","","","na","","17","",""
"1294.0999999940395","96967","HierDyrannq4ku","sub02 ","02 ","7","rl","test","83","img/p_t_diag.png","2","83","color,shape,pattern","18","1",""
"null","97974","HierDyrannq4ku","sub02 ","02 ","7","feedback","test","null","","","na","","18","",""
"1035","99011","HierDyrannq4ku","sub02 ","02 ","7","rl","test","70","img/p_d_diag.png","4","70","color,shape,pattern","19","1",""
"null","100016","HierDyrannq4ku","sub02 ","02 ","7","feedback","test","null","","","na","","19","",""
"803.7000000178814","100822","HierDyrannq4ku","sub02 ","02 ","7","rl","test","75","img/o_d_check.png","7","75","color,shape,pattern","20","1",""
"null","101828","HierDyrannq4ku","sub02 ","02 ","7","feedback","test","null","","","na","","20","",""
"769.0999999940395","102600","HierDyrannq4ku","sub02 ","02 ","7","rl","test","70","img/p_d_diag.png","4","70","color,shape,pattern","21","1",""
"null","103603","HierDyrannq4ku","sub02 ","02 ","7","feedback","test","null","","","na","","21","",""
"1115.9000000059605","104721","HierDyrannq4ku","sub02 ","02 ","7","rl","test","72","img/o_t_diag.png","6","74","color,shape,pattern","22","0",""
"null","105726","HierDyrannq4ku","sub02 ","02 ","7","feedback","test","null","","","na","","22","",""
"899.1999999880791","106627","HierDyrannq4ku","sub02 ","02 ","7","rl","test","83","img/p_t_diag.png","2","83","color,shape,pattern","23","1",""
"null","107632","HierDyrannq4ku","sub02 ","02 ","7","feedback","test","null","","","na","","23","",""
"652.9000000059605","108287","HierDyrannq4ku","sub02 ","02 ","7","rl","test","72","img/p_t_check.png","1","65","color,shape,pattern","24","0",""
"null","109295","HierDyrannq4ku","sub02 ","02 ","7","feedback","test","null","","","na","","24","",""
"869.5","110166","HierDyrannq4ku","sub02 ","02 ","7","rl","test","68","img/p_d_check.png","3","68","color,shape,pattern","25","1",""
"null","111174","HierDyrannq4ku","sub02 ","02 ","7","feedback","test","null","","","na","","25","",""
"592.2000000178814","111768","HierDyrannq4ku","sub02 ","02 ","7","rl","test","68","img/p_d_check.png","3","68","color,shape,pattern","26","1",""
"null","112771","HierDyrannq4ku","sub02 ","02 ","7","feedback","test","null","","","na","","26","",""
"725","113497","HierDyrannq4ku","sub02 ","02 ","7","rl","test","75","img/o_d_check.png","7","75","color,shape,pattern","27","1",""
"null","114503","HierDyrannq4ku","sub02 ","02 ","7","feedback","test","null","","","na","","27","",""
"550.9000000059605","115056","HierDyrannq4ku","sub02 ","02 ","7","rl","test","76","img/o_d_diag.png","8","76","color,shape,pattern","28","1",""
"null","116063","HierDyrannq4ku","sub02 ","02 ","7","feedback","test","null","","","na","","28","",""
"719.4000000059605","116786","HierDyrannq4ku","sub02 ","02 ","7","rl","test","65","img/p_t_check.png","1","65","color,shape,pattern","29","1",""
"null","117792","HierDyrannq4ku","sub02 ","02 ","7","feedback","test","null","","","na","","29","",""
"665.7000000178814","118460","HierDyrannq4ku","sub02 ","02 ","7","rl","test","72","img/o_t_check.png","5","72","color,shape,pattern","30","1",""
"null","119466","HierDyrannq4ku","sub02 ","02 ","7","feedback","test","null","","","na","","30","",""
"1193.199999988079","120661","HierDyrannq4ku","sub02 ","02 ","7","rl","test","70","img/p_d_diag.png","4","70","color,shape,pattern","31","1",""
"null","121666","HierDyrannq4ku","sub02 ","02 ","7","feedback","test","null","","","na","","31","",""
"1474.2000000178814","123142","HierDyrannq4ku","sub02 ","02 ","7","rl","test","74","img/o_t_diag.png","6","74","color,shape,pattern","32","1",""
"null","124149","HierDyrannq4ku","sub02 ","02 ","7","feedback","test","null","","","na","","32","",""
"1178","125329","HierDyrannq4ku","sub02 ","02 ","7","rl","test","70","img/p_d_diag.png","4","70","color,shape,pattern","33","1",""
"null","126336","HierDyrannq4ku","sub02 ","02 ","7","feedback","test","null","","","na","","33","",""
"1115.9000000059605","127454","HierDyrannq4ku","sub02 ","02 ","7","rl","test","68","img/p_d_check.png","3","68","color,shape,pattern","34","1",""
"null","128460","HierDyrannq4ku","sub02 ","02 ","7","feedback","test","null","","","na","","34","",""
"1712.7000000178814","130174","HierDyrannq4ku","sub02 ","02 ","7","rl","test","83","img/p_t_diag.png","2","83","color,shape,pattern","35","1",""
"null","131180","HierDyrannq4ku","sub02 ","02 ","7","feedback","test","null","","","na","","35","",""
"960","132142","HierDyrannq4ku","sub02 ","02 ","7","rl","test","65","img/p_t_check.png","1","65","color,shape,pattern","36","1",""
"null","133149","HierDyrannq4ku","sub02 ","02 ","7","feedback","test","null","","","na","","36","",""
"504.5","133656","HierDyrannq4ku","sub02 ","02 ","7","rl","test","65","img/p_t_check.png","1","65","color,shape,pattern","37","1",""
"null","134661","HierDyrannq4ku","sub02 ","02 ","7","feedback","test","null","","","na","","37","",""
"932.8999999761581","135596","HierDyrannq4ku","sub02 ","02 ","7","rl","test","74","img/o_t_diag.png","6","74","color,shape,pattern","38","1",""
"null","136602","HierDyrannq4ku","sub02 ","02 ","7","feedback","test","null","","","na","","38","",""
"496.80000001192093","137101","HierDyrannq4ku","sub02 ","02 ","7","rl","test","76","img/o_d_diag.png","8","76","color,shape,pattern","39","1",""
"null","138104","HierDyrannq4ku","sub02 ","02 ","7","feedback","test","null","","","na","","39","",""
"1164.199999988079","139270","HierDyrannq4ku","sub02 ","02 ","7","rl","test","75","img/o_d_check.png","7","75","color,shape,pattern","40","1",""
"null","140277","HierDyrannq4ku","sub02 ","02 ","7","feedback","test","null","","","na","","40","",""
"546.5999999940395","140825","HierDyrannq4ku","sub02 ","02 ","7","rl","test","74","img/o_t_diag.png","6","74","color,shape,pattern","41","1",""
"null","141833","HierDyrannq4ku","sub02 ","02 ","7","feedback","test","null","","","na","","41","",""
"570.5","142405","HierDyrannq4ku","sub02 ","02 ","7","rl","test","75","img/o_d_check.png","7","75","color,shape,pattern","42","1",""
"null","143408","HierDyrannq4ku","sub02 ","02 ","7","feedback","test","null","","","na","","42","",""
"814.8000000119209","144225","HierDyrannq4ku","sub02 ","02 ","7","rl","test","68","img/p_d_check.png","3","68","color,shape,pattern","43","1",""
"null","145232","HierDyrannq4ku","sub02 ","02 ","7","feedback","test","null","","","na","","43","",""
"1044.5","146279","HierDyrannq4ku","sub02 ","02 ","7","rl","test","72","img/o_t_check.png","5","72","color,shape,pattern","44","1",""
"null","147285","HierDyrannq4ku","sub02 ","02 ","7","feedback","test","null","","","na","","44","",""
"693.8000000119209","147981","HierDyrannq4ku","sub02 ","02 ","7","rl","test","76","img/o_d_diag.png","8","76","color,shape,pattern","45","1",""
"null","148988","HierDyrannq4ku","sub02 ","02 ","7","feedback","test","null","","","na","","45","",""
"720.8000000119209","149711","HierDyrannq4ku","sub02 ","02 ","7","rl","test","70","img/p_d_diag.png","4","70","color,shape,pattern","46","1",""
"null","150716","HierDyrannq4ku","sub02 ","02 ","7","feedback","test","null","","","na","","46","",""
"904","151622","HierDyrannq4ku","sub02 ","02 ","7","rl","test","75","img/p_d_check.png","3","68","color,shape,pattern","47","0",""
"null","152626","HierDyrannq4ku","sub02 ","02 ","7","feedback","test","null","","","na","","47","",""
"818.5999999940395","153447","HierDyrannq4ku","sub02 ","02 ","7","rl","test","72","img/o_t_check.png","5","72","color,shape,pattern","48","1",""
"null","154453","HierDyrannq4ku","sub02 ","02 ","7","feedback","test","null","","","na","","48","",""
"804.6999999880791","155260","HierDyrannq4ku","sub02 ","02 ","7","rl","test","70","img/p_d_diag.png","4","70","color,shape,pattern","49","1",""
"null","156267","HierDyrannq4ku","sub02 ","02 ","7","feedback","test","null","","","na","","49","",""
"1256.800000011921","157526","HierDyrannq4ku","sub02 ","02 ","7","rl","test","83","img/p_t_diag.png","2","83","color,shape,pattern","50","1",""
"null","158533","HierDyrannq4ku","sub02 ","02 ","7","feedback","test","null","","","na","","50","",""
"798.4000000059605","159334","HierDyrannq4ku","sub02 ","02 ","7","rl","test","74","img/o_t_diag.png","6","74","color,shape,pattern","51","1",""
"null","160336","HierDyrannq4ku","sub02 ","02 ","7","feedback","test","null","","","na","","51","",""
"841.5999999940395","161179","HierDyrannq4ku","sub02 ","02 ","7","rl","test","65","img/p_t_check.png","1","65","color,shape,pattern","52","1",""
"null","162186","HierDyrannq4ku","sub02 ","02 ","7","feedback","test","null","","","na","","52","",""
"627.4000000059605","162815","HierDyrannq4ku","sub02 ","02 ","7","rl","test","76","img/o_d_diag.png","8","76","color,shape,pattern","53","1",""
"null","163819","HierDyrannq4ku","sub02 ","02 ","7","feedback","test","null","","","na","","53","",""
"821.5","164643","HierDyrannq4ku","sub02 ","02 ","7","rl","test","68","img/o_d_check.png","7","75","color,shape,pattern","54","0",""
"null","165648","HierDyrannq4ku","sub02 ","02 ","7","feedback","test","null","","","na","","54","",""
"754.1000000238419","166404","HierDyrannq4ku","sub02 ","02 ","7","rl","test","72","img/o_t_check.png","5","72","color,shape,pattern","55","1",""
"null","167411","HierDyrannq4ku","sub02 ","02 ","7","feedback","test","null","","","na","","55","",""
"802.2000000178814","168215","HierDyrannq4ku","sub02 ","02 ","7","rl","test","74","img/o_t_diag.png","6","74","color,shape,pattern","56","1",""
"null","169222","HierDyrannq4ku","sub02 ","02 ","7","feedback","test","null","","","na","","56","",""
"916.9000000059605","170141","HierDyrannq4ku","sub02 ","02 ","7","rl","test","83","img/p_t_diag.png","2","83","color,shape,pattern","57","1",""
"null","171148","HierDyrannq4ku","sub02 ","02 ","7","feedback","test","null","","","na","","57","",""
"1281.699999988079","172432","HierDyrannq4ku","sub02 ","02 ","7","rl","test","70","img/p_d_diag.png","4","70","color,shape,pattern","58","1",""
"null","173439","HierDyrannq4ku","sub02 ","02 ","7","feedback","test","null","","","na","","58","",""
"1540.9000000059605","174982","HierDyrannq4ku","sub02 ","02 ","7","rl","test","83","img/p_t_diag.png","2","83","color,shape,pattern","59","1",""
"null","175988","HierDyrannq4ku","sub02 ","02 ","7","feedback","test","null","","","na","","59","",""
"867.2999999821186","176858","HierDyrannq4ku","sub02 ","02 ","7","rl","test","75","img/o_d_check.png","7","75","color,shape,pattern","60","1",""
"null","177865","HierDyrannq4ku","sub02 ","02 ","7","feedback","test","null","","","na","","60","",""
"716.8000000119209","178584","HierDyrannq4ku","sub02 ","02 ","7","rl","test","76","img/o_d_diag.png","8","76","color,shape,pattern","61","1",""
"null","179590","HierDyrannq4ku","sub02 ","02 ","7","feedback","test","null","","","na","","61","",""
"1485.8999999761581","181078","HierDyrannq4ku","sub02 ","02 ","7","rl","test","68","img/p_d_check.png","3","68","color,shape,pattern","62","1",""
"null","182080","HierDyrannq4ku","sub02 ","02 ","7","feedback","test","null","","","na","","62","",""
"1215.2999999821186","183297","HierDyrannq4ku","sub02 ","02 ","7","rl","test","65","img/p_t_check.png","1","65","color,shape,pattern","63","1",""
"null","184303","HierDyrannq4ku","sub02 ","02 ","7","feedback","test","null","","","na","","63","",""
"835.5","185141","HierDyrannq4ku","sub02 ","02 ","7","rl","test","72","img/o_t_check.png","5","72","color,shape,pattern","64","1",""
"null","186144","HierDyrannq4ku","sub02 ","02 ","7","feedback","test","null","","","na","","64","",""
"538.4000000059605","186685","HierDyrannq4ku","sub02 ","02 ","7","rl","test","72","img/o_t_check.png","5","72","color,shape,pattern","65","1",""
"null","187692","HierDyrannq4ku","sub02 ","02 ","7","feedback","test","null","","","na","","65","",""
"789.4000000059605","188485","HierDyrannq4ku","sub02 ","02 ","7","rl","test","74","img/o_t_diag.png","6","74","color,shape,pattern","66","1",""
"null","189489","HierDyrannq4ku","sub02 ","02 ","7","feedback","test","null","","","na","","66","",""
"874.4000000059605","190366","HierDyrannq4ku","sub02 ","02 ","7","rl","test","65","img/p_t_check.png","1","65","color,shape,pattern","67","1",""
"null","191371","HierDyrannq4ku","sub02 ","02 ","7","feedback","test","null","","","na","","67","",""
"1427.7999999821186","192801","HierDyrannq4ku","sub02 ","02 ","7","rl","test","72","img/o_t_check.png","5","72","color,shape,pattern","68","1",""
"null","193803","HierDyrannq4ku","sub02 ","02 ","7","feedback","test","null","","","na","","68","",""
"1077.800000011921","194883","HierDyrannq4ku","sub02 ","02 ","7","rl","test","70","img/p_d_diag.png","4","70","color,shape,pattern","69","1",""
"null","195886","HierDyrannq4ku","sub02 ","02 ","7","feedback","test","null","","","na","","69","",""
"944.1999999880791","196833","HierDyrannq4ku","sub02 ","02 ","7","rl","test","76","img/o_d_diag.png","8","76","color,shape,pattern","70","1",""
"null","197835","HierDyrannq4ku","sub02 ","02 ","7","feedback","test","null","","","na","","70","",""
"1978.199999988079","199815","HierDyrannq4ku","sub02 ","02 ","7","rl","test","83","img/p_t_diag.png","2","83","color,shape,pattern","71","1",""
"null","200822","HierDyrannq4ku","sub02 ","02 ","7","feedback","test","null","","","na","","71","",""
"1449.5999999940395","202273","HierDyrannq4ku","sub02 ","02 ","7","rl","test","65","img/p_t_check.png","1","65","color,shape,pattern","72","1",""
"null","203279","HierDyrannq4ku","sub02 ","02 ","7","feedback","test","null","","","na","","72","",""
"1345.5999999940395","204626","HierDyrannq4ku","sub02 ","02 ","7","rl","test","75","img/o_d_check.png","7","75","color,shape,pattern","73","1",""
"null","205631","HierDyrannq4ku","sub02 ","02 ","7","feedback","test","null","","","na","","73","",""
"1368.2000000178814","207001","HierDyrannq4ku","sub02 ","02 ","7","rl","test","68","img/p_d_check.png","3","68","color,shape,pattern","74","1",""
"null","208003","HierDyrannq4ku","sub02 ","02 ","7","feedback","test","null","","","na","","74","",""
"525","208530","HierDyrannq4ku","sub02 ","02 ","7","rl","test","68","img/p_d_check.png","3","68","color,shape,pattern","75","1",""
"null","209536","HierDyrannq4ku","sub02 ","02 ","7","feedback","test","null","","","na","","75","",""
"814","210352","HierDyrannq4ku","sub02 ","02 ","7","rl","test","75","img/o_d_check.png","7","75","color,shape,pattern","76","1",""
"null","211359","HierDyrannq4ku","sub02 ","02 ","7","feedback","test","null","","","na","","76","",""
"1113.5999999940395","212475","HierDyrannq4ku","sub02 ","02 ","7","rl","test","70","img/p_d_diag.png","4","70","color,shape,pattern","77","1",""
"null","213480","HierDyrannq4ku","sub02 ","02 ","7","feedback","test","null","","","na","","77","",""
"1759.5999999940395","215242","HierDyrannq4ku","sub02 ","02 ","7","rl","test","74","img/p_t_diag.png","2","83","color,shape,pattern","78","0",""
"null","216249","HierDyrannq4ku","sub02 ","02 ","7","feedback","test","null","","","na","","78","",""
"842","217092","HierDyrannq4ku","sub02 ","02 ","7","rl","test","74","img/o_t_diag.png","6","74","color,shape,pattern","79","1",""
"null","218094","HierDyrannq4ku","sub02 ","02 ","7","feedback","test","null","","","na","","79","",""
"675.4000000059605","218772","HierDyrannq4ku","sub02 ","02 ","7","rl","test","76","img/o_d_diag.png","8","76","color,shape,pattern","80","1",""
"null","219779","HierDyrannq4ku","sub02 ","02 ","7","feedback","test","null","","","na","","80","",""
"808.0999999940395","220589","HierDyrannq4ku","sub02 ","02 ","7","rl","test","70","img/p_d_diag.png","4","70","color,shape,pattern","81","1",""
"null","221594","HierDyrannq4ku","sub02 ","02 ","7","feedback","test","null","","","na","","81","",""
"1385.4000000059605","222982","HierDyrannq4ku","sub02 ","02 ","7","rl","test","72","img/o_t_check.png","5","72","color,shape,pattern","82","1",""
"null","223988","HierDyrannq4ku","sub02 ","02 ","7","feedback","test","null","","","na","","82","",""
"1295.699999988079","225285","HierDyrannq4ku","sub02 ","02 ","7","rl","test","83","img/p_t_diag.png","2","83","color,shape,pattern","83","1",""
"null","226289","HierDyrannq4ku","sub02 ","02 ","7","feedback","test","null","","","na","","83","",""
"1623","227913","HierDyrannq4ku","sub02 ","02 ","7","rl","test","72","img/o_t_check.png","5","72","color,shape,pattern","84","1",""
"null","228915","HierDyrannq4ku","sub02 ","02 ","7","feedback","test","null","","","na","","84","",""
"1513.3999999761581","230431","HierDyrannq4ku","sub02 ","02 ","7","rl","test","75","img/o_t_diag.png","6","74","color,shape,pattern","85","0",""
"null","231434","HierDyrannq4ku","sub02 ","02 ","7","feedback","test","null","","","na","","85","",""
"1102.5","232538","HierDyrannq4ku","sub02 ","02 ","7","rl","test","68","img/p_d_check.png","3","68","color,shape,pattern","86","1",""
"null","233545","HierDyrannq4ku","sub02 ","02 ","7","feedback","test","null","","","na","","86","",""
"1304.5","234852","HierDyrannq4ku","sub02 ","02 ","7","rl","test","65","img/p_t_check.png","1","65","color,shape,pattern","87","1",""
"null","235855","HierDyrannq4ku","sub02 ","02 ","7","feedback","test","null","","","na","","87","",""
"791.1999999880791","236648","HierDyrannq4ku","sub02 ","02 ","7","rl","test","65","img/p_t_check.png","1","65","color,shape,pattern","88","1",""
"null","237652","HierDyrannq4ku","sub02 ","02 ","7","feedback","test","null","","","na","","88","",""
"1189.199999988079","238844","HierDyrannq4ku","sub02 ","02 ","7","rl","test","75","img/o_d_check.png","7","75","color,shape,pattern","89","1",""
"null","239851","HierDyrannq4ku","sub02 ","02 ","7","feedback","test","null","","","na","","89","",""
"616.3000000119209","240469","HierDyrannq4ku","sub02 ","02 ","7","rl","test","76","img/o_d_diag.png","8","76","color,shape,pattern","90","1",""
"null","241474","HierDyrannq4ku","sub02 ","02 ","7","feedback","test","null","","","na","","90","",""
"1633.7000000178814","243109","HierDyrannq4ku","sub02 ","02 ","7","rl","test","83","img/p_t_diag.png","2","83","color,shape,pattern","91","1",""
"null","244115","HierDyrannq4ku","sub02 ","02 ","7","feedback","test","null","","","na","","91","",""
"1008.1999999880791","245125","HierDyrannq4ku","sub02 ","02 ","7","rl","test","74","img/o_t_diag.png","6","74","color,shape,pattern","92","1",""
"null","246132","HierDyrannq4ku","sub02 ","02 ","7","feedback","test","null","","","na","","92","",""
"1353.300000011921","247487","HierDyrannq4ku","sub02 ","02 ","7","rl","test","70","img/p_d_diag.png","4","70","color,shape,pattern","93","1",""
"null","248495","HierDyrannq4ku","sub02 ","02 ","7","feedback","test","null","","","na","","93","",""
"879.0999999940395","249376","HierDyrannq4ku","sub02 ","02 ","7","rl","test","76","img/o_d_diag.png","8","76","color,shape,pattern","94","1",""
"null","250380","HierDyrannq4ku","sub02 ","02 ","7","feedback","test","null","","","na","","94","",""
"903.8999999761581","251286","HierDyrannq4ku","sub02 ","02 ","7","rl","test","68","img/p_d_check.png","3","68","color,shape,pattern","95","1",""
"null","252293","HierDyrannq4ku","sub02 ","02 ","7","feedback","test","null","","","na","","95","",""
"990.6999999880791","253285","HierDyrannq4ku","sub02 ","02 ","7","rl","test","68","img/p_d_check.png","3","68","color,shape,pattern","96","1",""
"null","254289","HierDyrannq4ku","sub02 ","02 ","7","feedback","test","null","","","na","","96","",""
"1871.0999999940395","256162","HierDyrannq4ku","sub02 ","02 ","7","rl","test","83","img/p_t_diag.png","2","83","color,shape,pattern","97","1",""
"null","257165","HierDyrannq4ku","sub02 ","02 ","7","feedback","test","null","","","na","","97","",""
"1835.0999999940395","259002","HierDyrannq4ku","sub02 ","02 ","7","rl","test","72","img/o_t_check.png","5","72","color,shape,pattern","98","1",""
"null","260009","HierDyrannq4ku","sub02 ","02 ","7","feedback","test","null","","","na","","98","",""
"962.3000000119209","260973","HierDyrannq4ku","sub02 ","02 ","7","rl","test","65","img/p_t_check.png","1","65","color,shape,pattern","99","1",""
"null","261980","HierDyrannq4ku","sub02 ","02 ","7","feedback","test","null","","","na","","99","",""
"1623.5","263605","HierDyrannq4ku","sub02 ","02 ","7","rl","test","75","img/o_d_check.png","7","75","color,shape,pattern","100","1",""
"null","264610","HierDyrannq4ku","sub02 ","02 ","7","feedback","test","null","","","na","","100","",""
"1424.9000000059605","266037","HierDyrannq4ku","sub02 ","02 ","7","rl","test","83","img/p_t_diag.png","2","83","color,shape,pattern","101","1",""
"null","267041","HierDyrannq4ku","sub02 ","02 ","7","feedback","test","null","","","na","","101","",""
"1663.199999988079","268706","HierDyrannq4ku","sub02 ","02 ","7","rl","test","75","img/o_d_check.png","7","75","color,shape,pattern","102","1",""
"null","269709","HierDyrannq4ku","sub02 ","02 ","7","feedback","test","null","","","na","","102","",""
"966.0999999940395","270676","HierDyrannq4ku","sub02 ","02 ","7","rl","test","72","img/o_t_check.png","5","72","color,shape,pattern","103","1",""
"null","271680","HierDyrannq4ku","sub02 ","02 ","7","feedback","test","null","","","na","","103","",""
"736.5999999940395","272418","HierDyrannq4ku","sub02 ","02 ","7","rl","test","76","img/o_d_diag.png","8","76","color,shape,pattern","104","1",""
"null","273424","HierDyrannq4ku","sub02 ","02 ","7","feedback","test","null","","","na","","104","",""
"1703.1000000238419","275129","HierDyrannq4ku","sub02 ","02 ","7","rl","test","83","img/o_t_diag.png","6","74","color,shape,pattern","105","0",""
"null","276135","HierDyrannq4ku","sub02 ","02 ","7","feedback","test","null","","","na","","105","",""
"614.3000000119209","276751","HierDyrannq4ku","sub02 ","02 ","7","rl","test","65","img/o_t_check.png","5","72","color,shape,pattern","106","0",""
"null","277757","HierDyrannq4ku","sub02 ","02 ","7","feedback","test","null","","","na","","106","",""
"848.6999999880791","278607","HierDyrannq4ku","sub02 ","02 ","7","rl","test","70","img/p_d_diag.png","4","70","color,shape,pattern","107","1",""
"null","279613","HierDyrannq4ku","sub02 ","02 ","7","feedback","test","null","","","na","","107","",""
"2054.699999988079","281670","HierDyrannq4ku","sub02 ","02 ","7","rl","test","65","img/p_d_diag.png","4","70","color,shape,pattern","108","0",""
"null","282673","HierDyrannq4ku","sub02 ","02 ","7","feedback","test","null","","","na","","108","",""
"812.6999999880791","283487","HierDyrannq4ku","sub02 ","02 ","7","rl","test","76","img/o_d_diag.png","8","76","color,shape,pattern","109","1",""
"null","284494","HierDyrannq4ku","sub02 ","02 ","7","feedback","test","null","","","na","","109","",""
"1313.5","285809","HierDyrannq4ku","sub02 ","02 ","7","rl","test","68","img/p_d_check.png","3","68","color,shape,pattern","110","1",""
"null","286815","HierDyrannq4ku","sub02 ","02 ","7","feedback","test","null","","","na","","110","",""
"974.7000000178814","287792","HierDyrannq4ku","sub02 ","02 ","7","rl","test","75","img/o_d_check.png","7","75","color,shape,pattern","111","1",""
"null","288798","HierDyrannq4ku","sub02 ","02 ","7","feedback","test","null","","","na","","111","",""
"1116","289916","HierDyrannq4ku","sub02 ","02 ","7","rl","test","74","img/o_t_diag.png","6","74","color,shape,pattern","112","1",""
"null","290919","HierDyrannq4ku","sub02 ","02 ","7","feedback","test","null","","","na","","112","",""
"1532.800000011921","292454","HierDyrannq4ku","sub02 ","02 ","7","rl","test","68","img/o_d_check.png","7","75","color,shape,pattern","113","0",""
"null","293460","HierDyrannq4ku","sub02 ","02 ","7","feedback","test","null","","","na","","113","",""
"2034.199999988079","295496","HierDyrannq4ku","sub02 ","02 ","7","rl","test","65","img/p_t_check.png","1","65","color,shape,pattern","114","1",""
"null","296498","HierDyrannq4ku","sub02 ","02 ","7","feedback","test","null","","","na","","114","",""
"926.4000000059605","297427","HierDyrannq4ku","sub02 ","02 ","7","rl","test","76","img/o_d_diag.png","8","76","color,shape,pattern","115","1",""
"null","298434","HierDyrannq4ku","sub02 ","02 ","7","feedback","test","null","","","na","","115","",""
"1357.7999999821186","299793","HierDyrannq4ku","sub02 ","02 ","7","rl","test","83","img/p_t_diag.png","2","83","color,shape,pattern","116","1",""
"null","300797","HierDyrannq4ku","sub02 ","02 ","7","feedback","test","null","","","na","","116","",""
"642.8999999761581","301442","HierDyrannq4ku","sub02 ","02 ","7","rl","test","65","img/p_t_check.png","1","65","color,shape,pattern","117","1",""
"null","302449","HierDyrannq4ku","sub02 ","02 ","7","feedback","test","null","","","na","","117","",""
"1807.3999999761581","304258","HierDyrannq4ku","sub02 ","02 ","7","rl","test","72","img/p_d_check.png","3","68","color,shape,pattern","118","0",""
"null","305265","HierDyrannq4ku","sub02 ","02 ","7","feedback","test","null","","","na","","118","",""
"752.4000000059605","306020","HierDyrannq4ku","sub02 ","02 ","7","rl","test","70","img/p_d_diag.png","4","70","color,shape,pattern","119","1",""
"null","307027","HierDyrannq4ku","sub02 ","02 ","7","feedback","test","null","","","na","","119","",""
"1303.9000000059605","308332","HierDyrannq4ku","sub02 ","02 ","7","rl","test","74","img/o_t_diag.png","6","74","color,shape,pattern","120","1",""
"null","309339","HierDyrannq4ku","sub02 ","02 ","7","feedback","test","null","","","na","","120","",""
"804.8000000119209","310146","HierDyrannq4ku","sub02 ","02 ","7","rl","test","72","img/o_t_check.png","5","72","color,shape,pattern","121","1",""
"null","311153","HierDyrannq4ku","sub02 ","02 ","7","feedback","test","null","","","na","","121","",""
"632.5","311787","HierDyrannq4ku","sub02 ","02 ","7","rl","test","65","img/p_t_check.png","1","65","color,shape,pattern","122","1",""
"null","312795","HierDyrannq4ku","sub02 ","02 ","7","feedback","test","null","","","na","","122","",""
"995.1999999880791","313792","HierDyrannq4ku","sub02 ","02 ","7","rl","test","75","img/o_d_check.png","7","75","color,shape,pattern","123","1",""
"null","314794","HierDyrannq4ku","sub02 ","02 ","7","feedback","test","null","","","na","","123","",""
"1725.199999988079","316522","HierDyrannq4ku","sub02 ","02 ","7","rl","test","74","img/o_t_diag.png","6","74","color,shape,pattern","124","1",""
"null","317529","HierDyrannq4ku","sub02 ","02 ","7","feedback","test","null","","","na","","124","",""
"1649","319180","HierDyrannq4ku","sub02 ","02 ","7","rl","test","68","img/p_d_check.png","3","68","color,shape,pattern","125","1",""
"null","320187","HierDyrannq4ku","sub02 ","02 ","7","feedback","test","null","","","na","","125","",""
"100","320289","HierDyrannq4ku","sub02 ","02 ","7","rl","test","68","img/o_t_diag.png","6","74","color,shape,pattern","126","0",""
"null","321292","HierDyrannq4ku","sub02 ","02 ","7","feedback","test","null","","","na","","126","",""
"1157.199999988079","322451","HierDyrannq4ku","sub02 ","02 ","7","rl","test","76","img/o_d_diag.png","8","76","color,shape,pattern","127","1",""
"null","323455","HierDyrannq4ku","sub02 ","02 ","7","feedback","test","null","","","na","","127","",""
"2065","325522","HierDyrannq4ku","sub02 ","02 ","7","rl","test","74","img/p_t_diag.png","2","83","color,shape,pattern","128","0",""
"null","326529","HierDyrannq4ku","sub02 ","02 ","7","feedback","test","null","","","na","","128","",""
"1324.5999999940395","327856","HierDyrannq4ku","sub02 ","02 ","7","rl","test","75","img/o_d_check.png","7","75","color,shape,pattern","129","1",""
"null","328860","HierDyrannq4ku","sub02 ","02 ","7","feedback","test","null","","","na","","129","",""
"1867.5","330729","HierDyrannq4ku","sub02 ","02 ","7","rl","test","72","img/o_t_check.png","5","72","color,shape,pattern","130","1",""
"null","331736","HierDyrannq4ku","sub02 ","02 ","7","feedback","test","null","","","na","","130","",""
"1970.2999999821186","333709","HierDyrannq4ku","sub02 ","02 ","7","rl","test","83","img/p_t_diag.png","2","83","color,shape,pattern","131","1",""
"null","334715","HierDyrannq4ku","sub02 ","02 ","7","feedback","test","null","","","na","","131","",""
"782","335499","HierDyrannq4ku","sub02 ","02 ","7","rl","test","70","img/p_d_diag.png","4","70","color,shape,pattern","132","1",""
"null","336503","HierDyrannq4ku","sub02 ","02 ","7","feedback","test","null","","","na","","132","",""
"618.3000000119209","337123","HierDyrannq4ku","sub02 ","02 ","7","rl","test","70","img/p_d_diag.png","4","70","color,shape,pattern","133","1",""
"null","338130","HierDyrannq4ku","sub02 ","02 ","7","feedback","test","null","","","na","","133","",""
"663.9000000059605","338795","HierDyrannq4ku","sub02 ","02 ","7","rl","test","65","img/p_t_check.png","1","65","color,shape,pattern","134","1",""
"null","339802","HierDyrannq4ku","sub02 ","02 ","7","feedback","test","null","","","na","","134","",""
"915.5999999940395","340719","HierDyrannq4ku","sub02 ","02 ","7","rl","test","68","img/p_d_check.png","3","68","color,shape,pattern","135","1",""
"null","341726","HierDyrannq4ku","sub02 ","02 ","7","feedback","test","null","","","na","","135","",""
"710.6000000238419","342439","HierDyrannq4ku","sub02 ","02 ","7","rl","test","75","img/o_d_diag.png","8","76","color,shape,pattern","136","0",""
"null","343445","HierDyrannq4ku","sub02 ","02 ","7","feedback","test","null","","","na","","136","",""
"null","345953","HierDyrannq4ku","sub02 ","02 ","7","rl","test","null","img/o_t_diag.png","6","74","color,shape,pattern","137","0",""
"null","346959","HierDyrannq4ku","sub02 ","02 ","7","feedback","test","null","","","na","","137","",""
"907.6000000238419","347869","HierDyrannq4ku","sub02 ","02 ","7","rl","test","65","img/p_t_check.png","1","65","color,shape,pattern","138","1",""
"null","348873","HierDyrannq4ku","sub02 ","02 ","7","feedback","test","null","","","na","","138","",""
"591.9000000059605","349467","HierDyrannq4ku","sub02 ","02 ","7","rl","test","70","img/p_d_diag.png","4","70","color,shape,pattern","139","1",""
"null","350474","HierDyrannq4ku","sub02 ","02 ","7","feedback","test","null","","","na","","139","",""
"769.5","351245","HierDyrannq4ku","sub02 ","02 ","7","rl","test","68","img/p_d_check.png","3","68","color,shape,pattern","140","1",""
"null","352253","HierDyrannq4ku","sub02 ","02 ","7","feedback","test","null","","","na","","140","",""
"1096.2999999821186","353351","HierDyrannq4ku","sub02 ","02 ","7","rl","test","76","img/p_d_diag.png","4","70","color,shape,pattern","141","0",""
"null","354358","HierDyrannq4ku","sub02 ","02 ","7","feedback","test","null","","","na","","141","",""
"null","356864","HierDyrannq4ku","sub02 ","02 ","7","rl","test","null","img/o_d_check.png","7","75","color,shape,pattern","142","0",""
"null","357871","HierDyrannq4ku","sub02 ","02 ","7","feedback","test","null","","","na","","142","",""
"859.0999999940395","358732","HierDyrannq4ku","sub02 ","02 ","7","rl","test","76","img/o_d_diag.png","8","76","color,shape,pattern","143","1",""
"null","359739","HierDyrannq4ku","sub02 ","02 ","7","feedback","test","null","","","na","","143","",""
"1119.0999999940395","360860","HierDyrannq4ku","sub02 ","02 ","7","rl","test","72","img/o_t_check.png","5","72","color,shape,pattern","144","1",""
"null","361867","HierDyrannq4ku","sub02 ","02 ","7","feedback","test","null","","","na","","144","",""
"1277.199999988079","363146","HierDyrannq4ku","sub02 ","02 ","7","rl","test","83","img/p_t_diag.png","2","83","color,shape,pattern","145","1",""
"null","364153","HierDyrannq4ku","sub02 ","02 ","7","feedback","test","null","","","na","","145","",""
"568.4000000059605","364723","HierDyrannq4ku","sub02 ","02 ","7","rl","test","83","img/p_t_diag.png","2","83","color,shape,pattern","146","1",""
"null","365730","HierDyrannq4ku","sub02 ","02 ","7","feedback","test","null","","","na","","146","",""
"1183.0999999940395","366916","HierDyrannq4ku","sub02 ","02 ","7","rl","test","75","img/o_t_check.png","5","72","color,shape,pattern","147","0",""
"null","367919","HierDyrannq4ku","sub02 ","02 ","7","feedback","test","null","","","na","","147","",""
"1250.6000000238419","369172","HierDyrannq4ku","sub02 ","02 ","7","rl","test","68","img/p_d_check.png","3","68","color,shape,pattern","148","1",""
"null","370179","HierDyrannq4ku","sub02 ","02 ","7","feedback","test","null","","","na","","148","",""
"787.2999999821186","370969","HierDyrannq4ku","sub02 ","02 ","7","rl","test","75","img/o_d_check.png","7","75","color,shape,pattern","149","1",""
"null","371973","HierDyrannq4ku","sub02 ","02 ","7","feedback","test","null","","","na","","149","",""
"1880.0999999940395","373855","HierDyrannq4ku","sub02 ","02 ","7","rl","test","74","img/o_t_diag.png","6","74","color,shape,pattern","150","1",""
"null","374861","HierDyrannq4ku","sub02 ","02 ","7","feedback","test","null","","","na","","150","",""
"612.2999999821186","375476","HierDyrannq4ku","sub02 ","02 ","7","rl","test","76","img/o_d_diag.png","8","76","color,shape,pattern","151","1",""
"null","376480","HierDyrannq4ku","sub02 ","02 ","7","feedback","test","null","","","na","","151","",""
"2331.5","378813","HierDyrannq4ku","sub02 ","02 ","7","rl","test","83","img/p_t_check.png","1","65","color,shape,pattern","152","0",""
"null","379815","HierDyrannq4ku","sub02 ","02 ","7","feedback","test","null","","","na","","152","",""
"null","382323","HierDyrannq4ku","sub02 ","02 ","7","rl","test","null","img/p_d_diag.png","4","70","color,shape,pattern","153","0",""
"null","383327","HierDyrannq4ku","sub02 ","02 ","7","feedback","test","null","","","na","","153","",""
"1029.4000000059605","384359","HierDyrannq4ku","sub02 ","02 ","7","rl","test","76","img/o_d_diag.png","8","76","color,shape,pattern","154","1",""
"null","385361","HierDyrannq4ku","sub02 ","02 ","7","feedback","test","null","","","na","","154","",""
"2476.7000000178814","387840","HierDyrannq4ku","sub02 ","02 ","7","rl","test","83","img/p_t_diag.png","2","83","color,shape,pattern","155","1",""
"null","388842","HierDyrannq4ku","sub02 ","02 ","7","feedback","test","null","","","na","","155","",""
"939.0999999940395","389783","HierDyrannq4ku","sub02 ","02 ","7","rl","test","74","img/o_t_diag.png","6","74","color,shape,pattern","156","1",""
"null","390788","HierDyrannq4ku","sub02 ","02 ","7","feedback","test","null","","","na","","156","",""
"959","391749","HierDyrannq4ku","sub02 ","02 ","7","rl","test","72","img/o_t_check.png","5","72","color,shape,pattern","157","1",""
"null","392755","HierDyrannq4ku","sub02 ","02 ","7","feedback","test","null","","","na","","157","",""
"684.4000000059605","393441","HierDyrannq4ku","sub02 ","02 ","7","rl","test","75","img/o_d_check.png","7","75","color,shape,pattern","158","1",""
"null","394448","HierDyrannq4ku","sub02 ","02 ","7","feedback","test","null","","","na","","158","",""
"735.5","395186","HierDyrannq4ku","sub02 ","02 ","7","rl","test","68","img/p_d_check.png","3","68","color,shape,pattern","159","1",""
"null","396191","HierDyrannq4ku","sub02 ","02 ","7","feedback","test","null","","","na","","159","",""
"1784.199999988079","397977","HierDyrannq4ku","sub02 ","02 ","7","rl","test","74","img/p_t_diag.png","2","83","color,shape,pattern","160","0",""
"null","398981","HierDyrannq4ku","sub02 ","02 ","7","feedback","test","null","","","na","","160","",""
"1491.300000011921","400474","HierDyrannq4ku","sub02 ","02 ","7","rl","test","68","img/p_d_check.png","3","68","color,shape,pattern","161","1",""
"null","401480","HierDyrannq4ku","sub02 ","02 ","7","feedback","test","null","","","na","","161","",""
"882.9000000059605","402365","HierDyrannq4ku","sub02 ","02 ","7","rl","test","65","img/p_t_check.png","1","65","color,shape,pattern","162","1",""
"null","403371","HierDyrannq4ku","sub02 ","02 ","7","feedback","test","null","","","na","","162","",""
"510.2999999821186","403884","HierDyrannq4ku","sub02 ","02 ","7","rl","test","65","img/p_t_check.png","1","65","color,shape,pattern","163","1",""
"null","404887","HierDyrannq4ku","sub02 ","02 ","7","feedback","test","null","","","na","","163","",""
"677.7000000178814","405567","HierDyrannq4ku","sub02 ","02 ","7","rl","test","72","img/o_t_check.png","5","72","color,shape,pattern","164","1",""
"null","406574","HierDyrannq4ku","sub02 ","02 ","7","feedback","test","null","","","na","","164","",""
"942.9000000059605","407518","HierDyrannq4ku","sub02 ","02 ","7","rl","test","75","img/p_d_diag.png","4","70","color,shape,pattern","165","0",""
"null","408523","HierDyrannq4ku","sub02 ","02 ","7","feedback","test","null","","","na","","165","",""
"null","411026","HierDyrannq4ku","sub02 ","02 ","7","rl","test","null","img/o_d_check.png","7","75","color,shape,pattern","166","0",""
"null","412030","HierDyrannq4ku","sub02 ","02 ","7","feedback","test","null","","","na","","166","",""
"1641","413673","HierDyrannq4ku","sub02 ","02 ","7","rl","test","65","img/p_t_check.png","1","65","color,shape,pattern","167","1",""
"null","414680","HierDyrannq4ku","sub02 ","02 ","7","feedback","test","null","","","na","","167","",""
"740.6999999880791","415422","HierDyrannq4ku","sub02 ","02 ","7","rl","test","76","img/o_d_diag.png","8","76","color,shape,pattern","168","1",""
"null","416429","HierDyrannq4ku","sub02 ","02 ","7","feedback","test","null","","","na","","168","",""
"1627.3999999761581","418058","HierDyrannq4ku","sub02 ","02 ","7","rl","test","74","img/o_t_diag.png","6","74","color,shape,pattern","169","1",""
"null","419065","HierDyrannq4ku","sub02 ","02 ","7","feedback","test","null","","","na","","169","",""
"660.1999999880791","419728","HierDyrannq4ku","sub02 ","02 ","7","rl","test","76","img/o_d_diag.png","8","76","color,shape,pattern","170","1",""
"null","420735","HierDyrannq4ku","sub02 ","02 ","7","feedback","test","null","","","na","","170","",""
"1400.5","422137","HierDyrannq4ku","sub02 ","02 ","7","rl","test","83","img/p_t_diag.png","2","83","color,shape,pattern","171","1",""
"null","423141","HierDyrannq4ku","sub02 ","02 ","7","feedback","test","null","","","na","","171","",""
"952","424096","HierDyrannq4ku","sub02 ","02 ","7","rl","test","74","img/o_t_diag.png","6","74","color,shape,pattern","172","1",""
"null","425098","HierDyrannq4ku","sub02 ","02 ","7","feedback","test","null","","","na","","172","",""
"716.4000000059605","425816","HierDyrannq4ku","sub02 ","02 ","7","rl","test","74","img/o_t_diag.png","6","74","color,shape,pattern","173","1",""
"null","426823","HierDyrannq4ku","sub02 ","02 ","7","feedback","test","null","","","na","","173","",""
"937.5999999940395","427763","HierDyrannq4ku","sub02 ","02 ","7","rl","test","70","img/p_d_diag.png","4","70","color,shape,pattern","174","1",""
"null","428766","HierDyrannq4ku","sub02 ","02 ","7","feedback","test","null","","","na","","174","",""
"1661.9000000059605","430430","HierDyrannq4ku","sub02 ","02 ","7","rl","test","83","img/p_t_diag.png","2","83","color,shape,pattern","175","1",""
"null","431434","HierDyrannq4ku","sub02 ","02 ","7","feedback","test","null","","","na","","175","",""
"1057.0999999940395","432494","HierDyrannq4ku","sub02 ","02 ","7","rl","test","68","img/p_d_check.png","3","68","color,shape,pattern","176","1",""
"null","433498","HierDyrannq4ku","sub02 ","02 ","7","feedback","test","null","","","na","","176","",""
"1817.800000011921","435318","HierDyrannq4ku","sub02 ","02 ","7","rl","test","75","img/o_d_check.png","7","75","color,shape,pattern","177","1",""
"null","436325","HierDyrannq4ku","sub02 ","02 ","7","feedback","test","null","","","na","","177","",""
"2221.300000011921","438549","HierDyrannq4ku","sub02 ","02 ","7","rl","test","72","img/o_t_check.png","5","72","color,shape,pattern","178","1",""
"null","439553","HierDyrannq4ku","sub02 ","02 ","7","feedback","test","null","","","na","","178","",""
"884","440439","HierDyrannq4ku","sub02 ","02 ","7","rl","test","70","img/p_d_diag.png","4","70","color,shape,pattern","179","1",""
"null","441443","HierDyrannq4ku","sub02 ","02 ","7","feedback","test","null","","","na","","179","",""
"890.7999999821186","442337","HierDyrannq4ku","sub02 ","02 ","7","rl","test","72","img/o_t_check.png","5","72","color,shape,pattern","180","1",""
"null","443344","HierDyrannq4ku","sub02 ","02 ","7","feedback","test","null","","","na","","180","",""
"1474.5999999940395","444821","HierDyrannq4ku","sub02 ","02 ","7","rl","test","75","img/o_d_check.png","7","75","color,shape,pattern","181","1",""
"null","445825","HierDyrannq4ku","sub02 ","02 ","7","feedback","test","null","","","na","","181","",""
"1259.5","447087","HierDyrannq4ku","sub02 ","02 ","7","rl","test","65","img/p_t_check.png","1","65","color,shape,pattern","182","1",""
"null","448094","HierDyrannq4ku","sub02 ","02 ","7","feedback","test","null","","","na","","182","",""
"1007.3999999761581","449103","HierDyrannq4ku","sub02 ","02 ","7","rl","test","65","img/p_d_check.png","3","68","color,shape,pattern","183","0",""
"null","450110","HierDyrannq4ku","sub02 ","02 ","7","feedback","test","null","","","na","","183","",""
"1380.9000000059605","451493","HierDyrannq4ku","sub02 ","02 ","7","rl","test","75","img/p_d_diag.png","4","70","color,shape,pattern","184","0",""
"null","452498","HierDyrannq4ku","sub02 ","02 ","7","feedback","test","null","","","na","","184","",""
"954.9000000059605","453455","HierDyrannq4ku","sub02 ","02 ","7","rl","test","76","img/o_d_diag.png","8","76","color,shape,pattern","185","1",""
"null","454460","HierDyrannq4ku","sub02 ","02 ","7","feedback","test","null","","","na","","185","",""
"1030.0999999940395","455492","HierDyrannq4ku","sub02 ","02 ","7","rl","test","65","img/o_t_check.png","5","72","color,shape,pattern","186","0",""
"null","456498","HierDyrannq4ku","sub02 ","02 ","7","feedback","test","null","","","na","","186","",""
"1479.5999999940395","457980","HierDyrannq4ku","sub02 ","02 ","7","rl","test","83","img/p_t_diag.png","2","83","color,shape,pattern","187","1",""
"null","458984","HierDyrannq4ku","sub02 ","02 ","7","feedback","test","null","","","na","","187","",""
"653.1999999880791","459640","HierDyrannq4ku","sub02 ","02 ","7","rl","test","74","img/o_t_diag.png","6","74","color,shape,pattern","188","1",""
"null","460647","HierDyrannq4ku","sub02 ","02 ","7","feedback","test","null","","","na","","188","",""
"1284.7000000178814","461933","HierDyrannq4ku","sub02 ","02 ","7","rl","test","68","img/p_d_check.png","3","68","color,shape,pattern","189","1",""
"null","462941","HierDyrannq4ku","sub02 ","02 ","7","feedback","test","null","","","na","","189","",""
"779.9000000059605","463723","HierDyrannq4ku","sub02 ","02 ","7","rl","test","65","img/p_t_check.png","1","65","color,shape,pattern","190","1",""
"null","464730","HierDyrannq4ku","sub02 ","02 ","7","feedback","test","null","","","na","","190","",""
"1103.9000000059605","465836","HierDyrannq4ku","sub02 ","02 ","7","rl","test","75","img/o_d_check.png","7","75","color,shape,pattern","191","1",""
"null","466843","HierDyrannq4ku","sub02 ","02 ","7","feedback","test","null","","","na","","191","",""
"564.0999999940395","467409","HierDyrannq4ku","sub02 ","02 ","7","rl","test","76","img/o_d_diag.png","8","76","color,shape,pattern","192","1",""
"null","468415","HierDyrannq4ku","sub02 ","02 ","7","feedback","test","null","","","na","","192","",""
"1755.300000011921","470172","HierDyrannq4ku","sub02 ","02 ","7","rl","test","76","img/o_d_diag.png","8","76","color,shape,pattern","193","1",""
"null","471179","HierDyrannq4ku","sub02 ","02 ","7","feedback","test","null","","","na","","193","",""
"1051.2999999821186","472233","HierDyrannq4ku","sub02 ","02 ","7","rl","test","75","img/o_d_check.png","7","75","color,shape,pattern","194","1",""
"null","473235","HierDyrannq4ku","sub02 ","02 ","7","feedback","test","null","","","na","","194","",""
"909.1000000238419","474145","HierDyrannq4ku","sub02 ","02 ","7","rl","test","68","img/p_d_check.png","3","68","color,shape,pattern","195","1",""
"null","475152","HierDyrannq4ku","sub02 ","02 ","7","feedback","test","null","","","na","","195","",""
"997.3000000119209","476151","HierDyrannq4ku","sub02 ","02 ","7","rl","test","72","img/o_t_check.png","5","72","color,shape,pattern","196","1",""
"null","477154","HierDyrannq4ku","sub02 ","02 ","7","feedback","test","null","","","na","","196","",""
"659.0999999940395","477815","HierDyrannq4ku","sub02 ","02 ","7","rl","test","76","img/p_d_diag.png","4","70","color,shape,pattern","197","0",""
"null","478821","HierDyrannq4ku","sub02 ","02 ","7","feedback","test","null","","","na","","197","",""
"1419.1000000238419","480242","HierDyrannq4ku","sub02 ","02 ","7","rl","test","83","img/p_t_diag.png","2","83","color,shape,pattern","198","1",""
"null","481246","HierDyrannq4ku","sub02 ","02 ","7","feedback","test","null","","","na","","198","",""
"1928.2999999821186","483176","HierDyrannq4ku","sub02 ","02 ","7","rl","test","72","img/p_t_check.png","1","65","color,shape,pattern","199","0",""
"null","484179","HierDyrannq4ku","sub02 ","02 ","7","feedback","test","null","","","na","","199","",""
"1928.7999999821186","486110","HierDyrannq4ku","sub02 ","02 ","7","rl","test","74","img/o_t_diag.png","6","74","color,shape,pattern","200","1",""
"null","487115","HierDyrannq4ku","sub02 ","02 ","7","feedback","test","null","","","na","","200","",""
"1011.5","488128","HierDyrannq4ku","sub02 ","02 ","7","rl","test","72","img/o_t_check.png","5","72","color,shape,pattern","201","1",""
"null","489131","HierDyrannq4ku","sub02 ","02 ","7","feedback","test","null","","","na","","201","",""
"1370.199999988079","490503","HierDyrannq4ku","sub02 ","02 ","7","rl","test","75","img/o_d_check.png","7","75","color,shape,pattern","202","1",""
"null","491510","HierDyrannq4ku","sub02 ","02 ","7","feedback","test","null","","","na","","202","",""
"1333","492845","HierDyrannq4ku","sub02 ","02 ","7","rl","test","74","img/o_t_diag.png","6","74","color,shape,pattern","203","1",""
"null","493852","HierDyrannq4ku","sub02 ","02 ","7","feedback","test","null","","","na","","203","",""
"855.3000000119209","494709","HierDyrannq4ku","sub02 ","02 ","7","rl","test","83","img/p_t_check.png","1","65","color,shape,pattern","204","0",""
"null","495715","HierDyrannq4ku","sub02 ","02 ","7","feedback","test","null","","","na","","204","",""
"null","498222","HierDyrannq4ku","sub02 ","02 ","7","rl","test","null","img/p_t_diag.png","2","83","color,shape,pattern","205","0",""
"null","499229","HierDyrannq4ku","sub02 ","02 ","7","feedback","test","null","","","na","","205","",""
"1882.8999999761581","501114","HierDyrannq4ku","sub02 ","02 ","7","rl","test","76","img/o_d_diag.png","8","76","color,shape,pattern","206","1",""
"null","502121","HierDyrannq4ku","sub02 ","02 ","7","feedback","test","null","","","na","","206","",""
"1941.300000011921","504064","HierDyrannq4ku","sub02 ","02 ","7","rl","test","83","img/p_t_diag.png","2","83","color,shape,pattern","207","1",""
"null","505068","HierDyrannq4ku","sub02 ","02 ","7","feedback","test","null","","","na","","207","",""
"2013.699999988079","507083","HierDyrannq4ku","sub02 ","02 ","7","rl","test","74","img/p_d_diag.png","4","70","color,shape,pattern","208","0",""
"null","508090","HierDyrannq4ku","sub02 ","02 ","7","feedback","test","null","","","na","","208","",""
"null","510595","HierDyrannq4ku","sub02 ","02 ","7","rl","test","null","img/p_d_check.png","3","68","color,shape,pattern","209","0",""
"null","511602","HierDyrannq4ku","sub02 ","02 ","7","feedback","test","null","","","na","","209","",""
"453.59999999403954","512057","HierDyrannq4ku","sub02 ","02 ","7","rl","test","68","img/p_d_check.png","3","68","color,shape,pattern","210","1",""
"null","513064","HierDyrannq4ku","sub02 ","02 ","7","feedback","test","null","","","na","","210","",""
"1182.0999999940395","514248","HierDyrannq4ku","sub02 ","02 ","7","rl","test","83","img/p_t_diag.png","2","83","color,shape,pattern","211","1",""
"null","515253","HierDyrannq4ku","sub02 ","02 ","7","feedback","test","null","","","na","","211","",""
"674.8000000119209","515929","HierDyrannq4ku","sub02 ","02 ","7","rl","test","76","img/o_d_diag.png","8","76","color,shape,pattern","212","1",""
"null","516936","HierDyrannq4ku","sub02 ","02 ","7","feedback","test","null","","","na","","212","",""
"2466.5","519404","HierDyrannq4ku","sub02 ","02 ","7","rl","test","83","img/p_t_check.png","1","65","color,shape,pattern","213","0",""
"null","520411","HierDyrannq4ku","sub02 ","02 ","7","feedback","test","null","","","na","","213","",""
"982.5999999940395","521395","HierDyrannq4ku","sub02 ","02 ","7","rl","test","75","img/o_d_check.png","7","75","color,shape,pattern","214","1",""
"null","522402","HierDyrannq4ku","sub02 ","02 ","7","feedback","test","null","","","na","","214","",""
"1992.300000011921","524396","HierDyrannq4ku","sub02 ","02 ","7","rl","test","68","img/o_t_check.png","5","72","color,shape,pattern","215","0",""
"null","525403","HierDyrannq4ku","sub02 ","02 ","7","feedback","test","null","","","na","","215","",""
"1707.5999999940395","527112","HierDyrannq4ku","sub02 ","02 ","7","rl","test","76","img/o_d_diag.png","8","76","color,shape,pattern","216","1",""
"null","528115","HierDyrannq4ku","sub02 ","02 ","7","feedback","test","null","","","na","","216","",""
"650.3999999761581","528767","HierDyrannq4ku","sub02 ","02 ","7","rl","test","70","img/p_d_diag.png","4","70","color,shape,pattern","217","1",""
"null","529774","HierDyrannq4ku","sub02 ","02 ","7","feedback","test","null","","","na","","217","",""
"1337.4000000059605","531113","HierDyrannq4ku","sub02 ","02 ","7","rl","test","74","img/o_t_diag.png","6","74","color,shape,pattern","218","1",""
"null","532120","HierDyrannq4ku","sub02 ","02 ","7","feedback","test","null","","","na","","218","",""
"707.0999999940395","532829","HierDyrannq4ku","sub02 ","02 ","7","rl","test","74","img/o_t_diag.png","6","74","color,shape,pattern","219","1",""
"null","533836","HierDyrannq4ku","sub02 ","02 ","7","feedback","test","null","","","na","","219","",""
"1531.699999988079","535370","HierDyrannq4ku","sub02 ","02 ","7","rl","test","70","img/p_d_diag.png","4","70","color,shape,pattern","220","1",""
"null","536377","HierDyrannq4ku","sub02 ","02 ","7","feedback","test","null","","","na","","220","",""
"1045.9000000059605","537425","HierDyrannq4ku","sub02 ","02 ","7","rl","test","83","img/p_t_check.png","1","65","color,shape,pattern","221","0",""
"null","538432","HierDyrannq4ku","sub02 ","02 ","7","feedback","test","null","","","na","","221","",""
"2372.699999988079","540807","HierDyrannq4ku","sub02 ","02 ","7","rl","test","70","img/p_d_diag.png","4","70","color,shape,pattern","222","1",""
"null","541812","HierDyrannq4ku","sub02 ","02 ","7","feedback","test","null","","","na","","222","",""
"2288.5","544102","HierDyrannq4ku","sub02 ","02 ","7","rl","test","83","img/p_d_check.png","3","68","color,shape,pattern","223","0",""
"null","545110","HierDyrannq4ku","sub02 ","02 ","7","feedback","test","null","","","na","","223","",""
"680.3999999761581","545792","HierDyrannq4ku","sub02 ","02 ","7","rl","test","75","img/o_d_check.png","7","75","color,shape,pattern","224","1",""
"null","546794","HierDyrannq4ku","sub02 ","02 ","7","feedback","test","null","","","na","","224","",""
"1614.4000000059605","548411","HierDyrannq4ku","sub02 ","02 ","7","rl","test","72","img/o_t_check.png","5","72","color,shape,pattern","225","1",""
"null","549415","HierDyrannq4ku","sub02 ","02 ","7","feedback","test","null","","","na","","225","",""
"1235.2999999821186","550652","HierDyrannq4ku","sub02 ","02 ","7","rl","test","83","img/p_t_diag.png","2","83","color,shape,pattern","226","1",""
"null","551656","HierDyrannq4ku","sub02 ","02 ","7","feedback","test","null","","","na","","226","",""
"1118.300000011921","552776","HierDyrannq4ku","sub02 ","02 ","7","rl","test","68","img/p_d_check.png","3","68","color,shape,pattern","227","1",""
"null","553779","HierDyrannq4ku","sub02 ","02 ","7","feedback","test","null","","","na","","227","",""
"1988.0999999940395","555769","HierDyrannq4ku","sub02 ","02 ","7","rl","test","76","img/o_d_diag.png","8","76","color,shape,pattern","228","1",""
"null","556776","HierDyrannq4ku","sub02 ","02 ","7","feedback","test","null","","","na","","228","",""
"1588.4000000059605","558366","HierDyrannq4ku","sub02 ","02 ","7","rl","test","75","img/o_d_check.png","7","75","color,shape,pattern","229","1",""
"null","559369","HierDyrannq4ku","sub02 ","02 ","7","feedback","test","null","","","na","","229","",""
"1320.2999999821186","560691","HierDyrannq4ku","sub02 ","02 ","7","rl","test","74","img/o_t_diag.png","6","74","color,shape,pattern","230","1",""
"null","561698","HierDyrannq4ku","sub02 ","02 ","7","feedback","test","null","","","na","","230","",""
"883.5999999940395","562583","HierDyrannq4ku","sub02 ","02 ","7","rl","test","72","img/o_t_check.png","5","72","color,shape,pattern","231","1",""
"null","563586","HierDyrannq4ku","sub02 ","02 ","7","feedback","test","null","","","na","","231","",""
"1142.5999999940395","564730","HierDyrannq4ku","sub02 ","02 ","7","rl","test","74","img/o_t_diag.png","6","74","color,shape,pattern","232","1",""
"null","565732","HierDyrannq4ku","sub02 ","02 ","7","feedback","test","null","","","na","","232","",""
"917.6999999880791","566652","HierDyrannq4ku","sub02 ","02 ","7","rl","test","83","img/p_t_diag.png","2","83","color,shape,pattern","233","1",""
"null","567659","HierDyrannq4ku","sub02 ","02 ","7","feedback","test","null","","","na","","233","",""
"647.5","568308","HierDyrannq4ku","sub02 ","02 ","7","rl","test","65","img/p_t_check.png","1","65","color,shape,pattern","234","1",""
"null","569315","HierDyrannq4ku","sub02 ","02 ","7","feedback","test","null","","","na","","234","",""
"617.2000000178814","569935","HierDyrannq4ku","sub02 ","02 ","7","rl","test","65","img/p_t_check.png","1","65","color,shape,pattern","235","1",""
"null","570942","HierDyrannq4ku","sub02 ","02 ","7","feedback","test","null","","","na","","235","",""
"847.5","571792","HierDyrannq4ku","sub02 ","02 ","7","rl","test","76","img/o_d_diag.png","8","76","color,shape,pattern","236","1",""
"null","572798","HierDyrannq4ku","sub02 ","02 ","7","feedback","test","null","","","na","","236","",""
"897.1999999880791","573696","HierDyrannq4ku","sub02 ","02 ","7","rl","test","70","img/p_d_diag.png","4","70","color,shape,pattern","237","1",""
"null","574702","HierDyrannq4ku","sub02 ","02 ","7","feedback","test","null","","","na","","237","",""
"1365.800000011921","576070","HierDyrannq4ku","sub02 ","02 ","7","rl","test","68","img/p_t_check.png","1","65","color,shape,pattern","238","0",""
"null","577077","HierDyrannq4ku","sub02 ","02 ","7","feedback","test","null","","","na","","238","",""
"1023.7999999821186","578103","HierDyrannq4ku","sub02 ","02 ","7","rl","test","75","img/o_d_check.png","7","75","color,shape,pattern","239","1",""
"null","579110","HierDyrannq4ku","sub02 ","02 ","7","feedback","test","null","","","na","","239","",""
"1480.5999999940395","580592","HierDyrannq4ku","sub02 ","02 ","7","rl","test","72","img/o_t_check.png","5","72","color,shape,pattern","240","1",""
"null","581594","HierDyrannq4ku","sub02 ","02 ","7","feedback","test","null","","","na","","240","",""
"984.8999999761581","582581","HierDyrannq4ku","sub02 ","02 ","7","rl","test","68","img/p_d_check.png","3","68","color,shape,pattern","241","1",""
"null","583585","HierDyrannq4ku","sub02 ","02 ","7","feedback","test","null","","","na","","241","",""
"1447.699999988079","585035","HierDyrannq4ku","sub02 ","02 ","7","rl","test","76","img/o_d_diag.png","8","76","color,shape,pattern","242","1",""
"null","586038","HierDyrannq4ku","sub02 ","02 ","7","feedback","test","null","","","na","","242","",""
"1274.3999999761581","587314","HierDyrannq4ku","sub02 ","02 ","7","rl","test","68","img/p_d_check.png","3","68","color,shape,pattern","243","1",""
"null","588319","HierDyrannq4ku","sub02 ","02 ","7","feedback","test","null","","","na","","243","",""
"648","588969","HierDyrannq4ku","sub02 ","02 ","7","rl","test","75","img/o_d_check.png","7","75","color,shape,pattern","244","1",""
"null","589976","HierDyrannq4ku","sub02 ","02 ","7","feedback","test","null","","","na","","244","",""
"818","590796","HierDyrannq4ku","sub02 ","02 ","7","rl","test","70","img/p_d_diag.png","4","70","color,shape,pattern","245","1",""
"null","591802","HierDyrannq4ku","sub02 ","02 ","7","feedback","test","null","","","na","","245","",""
"817.0999999940395","592621","HierDyrannq4ku","sub02 ","02 ","7","rl","test","83","img/p_t_diag.png","2","83","color,shape,pattern","246","1",""
"null","593628","HierDyrannq4ku","sub02 ","02 ","7","feedback","test","null","","","na","","246","",""
"712.9000000059605","594343","HierDyrannq4ku","sub02 ","02 ","7","rl","test","75","img/o_t_diag.png","6","74","color,shape,pattern","247","0",""
"null","595350","HierDyrannq4ku","sub02 ","02 ","7","feedback","test","null","","","na","","247","",""
"778","596131","HierDyrannq4ku","sub02 ","02 ","7","rl","test","75","img/o_d_check.png","7","75","color,shape,pattern","248","1",""
"null","597138","HierDyrannq4ku","sub02 ","02 ","7","feedback","test","null","","","na","","248","",""
"11192","608336","HierDyrannq4ku","sub02 ","02 ","7","","","","","","","","","","{""Q0"":""6""}"
"72553.80000001192","680894","HierDyrannq4ku","sub02 ","02 ","7","","","","","","","","","","{""Q0"":""I remembered where the patterns were from yesterday and I used the same strategy from yesterday which was corresponding the color purple with the left hand and the color orange with the right hand and corresponding the four fingers on each hand with the striped diamond, checkered diamond, striped triangle, and checkered triangle from right to left on each hand respectively. I also repeated the color of the figure in my head because I had memorized where the patterns were and was mainly messing up on the colors.  ""}"
"5980.0999999940395","686876","HierDyrannq4ku","sub02 ","02 ","7","","","","","","","","","",""
