"rt","time_elapsed","subject","subID","group","day","trialType","phase","key_press","stim","stimNum","corrresp","hierarchy","trialNum","corr","responses"
"3045.0999999996275","3049","HierDy7pw7z6gb","sub18","06","02","","","","","","","","","",""
"","5544","HierDy7pw7z6gb","sub18","06","02","fullscreen","","","","","","","","",""
"1091.0999999996275","6636","HierDy7pw7z6gb","sub18","06","02","","prac","","","","","","","",""
"28371.800000000745","35011","HierDy7pw7z6gb","sub18","06","02","","","32","","","","","","",""
"931.3000000007451","35943","HierDy7pw7z6gb","sub18","06","02","","prac","","","","","","","",""
"1560.800000000745","37505","HierDy7pw7z6gb","sub18","06","02","rl","test","70","img/r_s_stripes.png","4","70","pattern,shape,color","1","1",""
"null","38509","HierDy7pw7z6gb","sub18","06","02","feedback","test","null","","","na","","1","",""
"646","39157","HierDy7pw7z6gb","sub18","06","02","rl","test","68","img/o_s_stripes.png","3","68","pattern,shape,color","2","1",""
"null","40166","HierDy7pw7z6gb","sub18","06","02","feedback","test","null","","","na","","2","",""
"730.0999999996275","40897","HierDy7pw7z6gb","sub18","06","02","rl","test","83","img/o_t_stripes.png","1","65","pattern,shape,color","3","0",""
"null","41904","HierDy7pw7z6gb","sub18","06","02","feedback","test","null","","","na","","3","",""
"1498.2999999988824","43404","HierDy7pw7z6gb","sub18","06","02","rl","test","75","img/r_t_check.png","6","74","pattern,shape,color","4","0",""
"null","44416","HierDy7pw7z6gb","sub18","06","02","feedback","test","null","","","na","","4","",""
"1050","45467","HierDy7pw7z6gb","sub18","06","02","rl","test","74","img/o_t_check.png","5","72","pattern,shape,color","5","0",""
"null","46481","HierDy7pw7z6gb","sub18","06","02","feedback","test","null","","","na","","5","",""
"1513.5999999996275","47995","HierDy7pw7z6gb","sub18","06","02","rl","test","83","img/r_t_stripes.png","2","83","pattern,shape,color","6","1",""
"null","49004","HierDy7pw7z6gb","sub18","06","02","feedback","test","null","","","na","","6","",""
"2377.800000000745","51383","HierDy7pw7z6gb","sub18","06","02","rl","test","72","img/r_t_check.png","6","74","pattern,shape,color","7","0",""
"null","52391","HierDy7pw7z6gb","sub18","06","02","feedback","test","null","","","na","","7","",""
"1193.5999999996275","53586","HierDy7pw7z6gb","sub18","06","02","rl","test","75","img/o_s_check.png","7","75","pattern,shape,color","8","1",""
"null","54593","HierDy7pw7z6gb","sub18","06","02","feedback","test","null","","","na","","8","",""
"700.4000000003725","55295","HierDy7pw7z6gb","sub18","06","02","rl","test","75","img/o_s_check.png","7","75","pattern,shape,color","9","1",""
"null","56304","HierDy7pw7z6gb","sub18","06","02","feedback","test","null","","","na","","9","",""
"1111.300000000745","57417","HierDy7pw7z6gb","sub18","06","02","rl","test","76","img/r_s_check.png","8","76","pattern,shape,color","10","1",""
"null","58424","HierDy7pw7z6gb","sub18","06","02","feedback","test","null","","","na","","10","",""
"886.5999999996275","59312","HierDy7pw7z6gb","sub18","06","02","rl","test","75","img/o_t_check.png","5","72","pattern,shape,color","11","0",""
"null","60316","HierDy7pw7z6gb","sub18","06","02","feedback","test","null","","","na","","11","",""
"787.0999999996275","61105","HierDy7pw7z6gb","sub18","06","02","rl","test","70","img/r_s_stripes.png","4","70","pattern,shape,color","12","1",""
"null","62109","HierDy7pw7z6gb","sub18","06","02","feedback","test","null","","","na","","12","",""
"514.1999999992549","62624","HierDy7pw7z6gb","sub18","06","02","rl","test","68","img/o_s_stripes.png","3","68","pattern,shape,color","13","1",""
"null","63632","HierDy7pw7z6gb","sub18","06","02","feedback","test","null","","","na","","13","",""
"1715.8999999985099","65349","HierDy7pw7z6gb","sub18","06","02","rl","test","76","img/r_s_check.png","8","76","pattern,shape,color","14","1",""
"null","66361","HierDy7pw7z6gb","sub18","06","02","feedback","test","null","","","na","","14","",""
"902.2000000011176","67264","HierDy7pw7z6gb","sub18","06","02","rl","test","65","img/o_t_stripes.png","1","65","pattern,shape,color","15","1",""
"null","68272","HierDy7pw7z6gb","sub18","06","02","feedback","test","null","","","na","","15","",""
"1079.4000000003725","69352","HierDy7pw7z6gb","sub18","06","02","rl","test","68","img/o_s_stripes.png","3","68","pattern,shape,color","16","1",""
"null","70357","HierDy7pw7z6gb","sub18","06","02","feedback","test","null","","","na","","16","",""
"1833.4000000003725","72192","HierDy7pw7z6gb","sub18","06","02","rl","test","83","img/o_t_stripes.png","1","65","pattern,shape,color","17","0",""
"null","73200","HierDy7pw7z6gb","sub18","06","02","feedback","test","null","","","na","","17","",""
"1086.199999999255","74288","HierDy7pw7z6gb","sub18","06","02","rl","test","75","img/o_s_check.png","7","75","pattern,shape,color","18","1",""
"null","75293","HierDy7pw7z6gb","sub18","06","02","feedback","test","null","","","na","","18","",""
"1094.5999999996275","76389","HierDy7pw7z6gb","sub18","06","02","rl","test","65","img/r_t_stripes.png","2","83","pattern,shape,color","19","0",""
"null","77397","HierDy7pw7z6gb","sub18","06","02","feedback","test","null","","","na","","19","",""
"842.8999999985099","78241","HierDy7pw7z6gb","sub18","06","02","rl","test","83","img/r_t_stripes.png","2","83","pattern,shape,color","20","1",""
"null","79249","HierDy7pw7z6gb","sub18","06","02","feedback","test","null","","","na","","20","",""
"1112.5999999996275","80363","HierDy7pw7z6gb","sub18","06","02","rl","test","76","img/r_t_check.png","6","74","pattern,shape,color","21","0",""
"null","81373","HierDy7pw7z6gb","sub18","06","02","feedback","test","null","","","na","","21","",""
"2165.5999999996275","83540","HierDy7pw7z6gb","sub18","06","02","rl","test","75","img/r_s_check.png","8","76","pattern,shape,color","22","0",""
"null","84550","HierDy7pw7z6gb","sub18","06","02","feedback","test","null","","","na","","22","",""
"1577.5999999996275","86129","HierDy7pw7z6gb","sub18","06","02","rl","test","68","img/o_s_check.png","7","75","pattern,shape,color","23","0",""
"null","87138","HierDy7pw7z6gb","sub18","06","02","feedback","test","null","","","na","","23","",""
"1535.0999999996275","88674","HierDy7pw7z6gb","sub18","06","02","rl","test","74","img/o_t_check.png","5","72","pattern,shape,color","24","0",""
"null","89680","HierDy7pw7z6gb","sub18","06","02","feedback","test","null","","","na","","24","",""
"760.8000000007451","90442","HierDy7pw7z6gb","sub18","06","02","rl","test","74","img/r_t_check.png","6","74","pattern,shape,color","25","1",""
"null","91450","HierDy7pw7z6gb","sub18","06","02","feedback","test","null","","","na","","25","",""
"null","93957","HierDy7pw7z6gb","sub18","06","02","rl","test","null","img/r_s_stripes.png","4","70","pattern,shape,color","26","0",""
"null","94967","HierDy7pw7z6gb","sub18","06","02","feedback","test","null","","","na","","26","",""
"1244.5","96214","HierDy7pw7z6gb","sub18","06","02","rl","test","65","img/r_t_stripes.png","2","83","pattern,shape,color","27","0",""
"null","97226","HierDy7pw7z6gb","sub18","06","02","feedback","test","null","","","na","","27","",""
"911.4000000003725","98138","HierDy7pw7z6gb","sub18","06","02","rl","test","70","img/r_s_stripes.png","4","70","pattern,shape,color","28","1",""
"null","99144","HierDy7pw7z6gb","sub18","06","02","feedback","test","null","","","na","","28","",""
"716.5","99862","HierDy7pw7z6gb","sub18","06","02","rl","test","68","img/o_s_stripes.png","3","68","pattern,shape,color","29","1",""
"null","100871","HierDy7pw7z6gb","sub18","06","02","feedback","test","null","","","na","","29","",""
"1468.4000000003725","102341","HierDy7pw7z6gb","sub18","06","02","rl","test","74","img/o_t_check.png","5","72","pattern,shape,color","30","0",""
"null","103352","HierDy7pw7z6gb","sub18","06","02","feedback","test","null","","","na","","30","",""
"772.7999999988824","104126","HierDy7pw7z6gb","sub18","06","02","rl","test","75","img/r_s_check.png","8","76","pattern,shape,color","31","0",""
"null","105134","HierDy7pw7z6gb","sub18","06","02","feedback","test","null","","","na","","31","",""
"1084.699999999255","106220","HierDy7pw7z6gb","sub18","06","02","rl","test","83","img/o_t_stripes.png","1","65","pattern,shape,color","32","0",""
"null","107224","HierDy7pw7z6gb","sub18","06","02","feedback","test","null","","","na","","32","",""
"1344","108570","HierDy7pw7z6gb","sub18","06","02","rl","test","75","img/r_s_stripes.png","4","70","pattern,shape,color","33","0",""
"null","109574","HierDy7pw7z6gb","sub18","06","02","feedback","test","null","","","na","","33","",""
"1525.1000000014901","111101","HierDy7pw7z6gb","sub18","06","02","rl","test","72","img/o_t_check.png","5","72","pattern,shape,color","34","1",""
"null","112114","HierDy7pw7z6gb","sub18","06","02","feedback","test","null","","","na","","34","",""
"893","113008","HierDy7pw7z6gb","sub18","06","02","rl","test","83","img/r_t_stripes.png","2","83","pattern,shape,color","35","1",""
"null","114016","HierDy7pw7z6gb","sub18","06","02","feedback","test","null","","","na","","35","",""
"844.2999999988824","114862","HierDy7pw7z6gb","sub18","06","02","rl","test","68","img/o_s_stripes.png","3","68","pattern,shape,color","36","1",""
"null","115874","HierDy7pw7z6gb","sub18","06","02","feedback","test","null","","","na","","36","",""
"1499.0999999996275","117374","HierDy7pw7z6gb","sub18","06","02","rl","test","75","img/o_s_check.png","7","75","pattern,shape,color","37","1",""
"null","118382","HierDy7pw7z6gb","sub18","06","02","feedback","test","null","","","na","","37","",""
"1417.2000000011176","119800","HierDy7pw7z6gb","sub18","06","02","rl","test","70","img/r_t_stripes.png","2","83","pattern,shape,color","38","0",""
"null","120809","HierDy7pw7z6gb","sub18","06","02","feedback","test","null","","","na","","38","",""
"1200.0999999996275","122010","HierDy7pw7z6gb","sub18","06","02","rl","test","75","img/o_s_check.png","7","75","pattern,shape,color","39","1",""
"null","123014","HierDy7pw7z6gb","sub18","06","02","feedback","test","null","","","na","","39","",""
"946.4000000003725","123962","HierDy7pw7z6gb","sub18","06","02","rl","test","74","img/r_t_check.png","6","74","pattern,shape,color","40","1",""
"null","124968","HierDy7pw7z6gb","sub18","06","02","feedback","test","null","","","na","","40","",""
"1042.8999999985099","126012","HierDy7pw7z6gb","sub18","06","02","rl","test","75","img/r_s_check.png","8","76","pattern,shape,color","41","0",""
"null","127018","HierDy7pw7z6gb","sub18","06","02","feedback","test","null","","","na","","41","",""
"854.3000000007451","127874","HierDy7pw7z6gb","sub18","06","02","rl","test","68","img/r_s_check.png","8","76","pattern,shape,color","42","0",""
"null","128877","HierDy7pw7z6gb","sub18","06","02","feedback","test","null","","","na","","42","",""
"1147.4000000003725","130026","HierDy7pw7z6gb","sub18","06","02","rl","test","83","img/o_t_stripes.png","1","65","pattern,shape,color","43","0",""
"null","131030","HierDy7pw7z6gb","sub18","06","02","feedback","test","null","","","na","","43","",""
"1996.300000000745","133027","HierDy7pw7z6gb","sub18","06","02","rl","test","72","img/r_t_check.png","6","74","pattern,shape,color","44","0",""
"null","134031","HierDy7pw7z6gb","sub18","06","02","feedback","test","null","","","na","","44","",""
"1227.5","135259","HierDy7pw7z6gb","sub18","06","02","rl","test","68","img/r_s_stripes.png","4","70","pattern,shape,color","45","0",""
"null","136263","HierDy7pw7z6gb","sub18","06","02","feedback","test","null","","","na","","45","",""
"1163","137427","HierDy7pw7z6gb","sub18","06","02","rl","test","65","img/o_t_stripes.png","1","65","pattern,shape,color","46","1",""
"null","138434","HierDy7pw7z6gb","sub18","06","02","feedback","test","null","","","na","","46","",""
"2318.199999999255","140753","HierDy7pw7z6gb","sub18","06","02","rl","test","70","img/o_s_stripes.png","3","68","pattern,shape,color","47","0",""
"null","141762","HierDy7pw7z6gb","sub18","06","02","feedback","test","null","","","na","","47","",""
"1179.0999999996275","142942","HierDy7pw7z6gb","sub18","06","02","rl","test","72","img/o_t_check.png","5","72","pattern,shape,color","48","1",""
"null","143951","HierDy7pw7z6gb","sub18","06","02","feedback","test","null","","","na","","48","",""
"1059.300000000745","145011","HierDy7pw7z6gb","sub18","06","02","rl","test","75","img/o_s_check.png","7","75","pattern,shape,color","49","1",""
"null","146018","HierDy7pw7z6gb","sub18","06","02","feedback","test","null","","","na","","49","",""
"727.3000000007451","146747","HierDy7pw7z6gb","sub18","06","02","rl","test","72","img/o_t_check.png","5","72","pattern,shape,color","50","1",""
"null","147754","HierDy7pw7z6gb","sub18","06","02","feedback","test","null","","","na","","50","",""
"922.6999999992549","148678","HierDy7pw7z6gb","sub18","06","02","rl","test","70","img/r_s_stripes.png","4","70","pattern,shape,color","51","1",""
"null","149688","HierDy7pw7z6gb","sub18","06","02","feedback","test","null","","","na","","51","",""
"862.4000000003725","150552","HierDy7pw7z6gb","sub18","06","02","rl","test","83","img/r_t_check.png","6","74","pattern,shape,color","52","0",""
"null","151559","HierDy7pw7z6gb","sub18","06","02","feedback","test","null","","","na","","52","",""
"2065.9000000003725","153626","HierDy7pw7z6gb","sub18","06","02","rl","test","83","img/r_t_stripes.png","2","83","pattern,shape,color","53","1",""
"null","154631","HierDy7pw7z6gb","sub18","06","02","feedback","test","null","","","na","","53","",""
"1432","156064","HierDy7pw7z6gb","sub18","06","02","rl","test","68","img/o_s_stripes.png","3","68","pattern,shape,color","54","1",""
"null","157070","HierDy7pw7z6gb","sub18","06","02","feedback","test","null","","","na","","54","",""
"982.2000000011176","158054","HierDy7pw7z6gb","sub18","06","02","rl","test","83","img/o_t_stripes.png","1","65","pattern,shape,color","55","0",""
"null","159067","HierDy7pw7z6gb","sub18","06","02","feedback","test","null","","","na","","55","",""
"824.5","159893","HierDy7pw7z6gb","sub18","06","02","rl","test","70","img/r_s_stripes.png","4","70","pattern,shape,color","56","1",""
"null","160902","HierDy7pw7z6gb","sub18","06","02","feedback","test","null","","","na","","56","",""
"1876.5","162780","HierDy7pw7z6gb","sub18","06","02","rl","test","76","img/r_s_check.png","8","76","pattern,shape,color","57","1",""
"null","163786","HierDy7pw7z6gb","sub18","06","02","feedback","test","null","","","na","","57","",""
"939.5","164727","HierDy7pw7z6gb","sub18","06","02","rl","test","76","img/r_s_check.png","8","76","pattern,shape,color","58","1",""
"null","165735","HierDy7pw7z6gb","sub18","06","02","feedback","test","null","","","na","","58","",""
"964.5999999996275","166701","HierDy7pw7z6gb","sub18","06","02","rl","test","70","img/o_s_stripes.png","3","68","pattern,shape,color","59","0",""
"null","167710","HierDy7pw7z6gb","sub18","06","02","feedback","test","null","","","na","","59","",""
"816.6999999992549","168528","HierDy7pw7z6gb","sub18","06","02","rl","test","75","img/r_t_check.png","6","74","pattern,shape,color","60","0",""
"null","169535","HierDy7pw7z6gb","sub18","06","02","feedback","test","null","","","na","","60","",""
"1005.9000000003725","170542","HierDy7pw7z6gb","sub18","06","02","rl","test","75","img/o_s_check.png","7","75","pattern,shape,color","61","1",""
"null","171551","HierDy7pw7z6gb","sub18","06","02","feedback","test","null","","","na","","61","",""
"1106.699999999255","172658","HierDy7pw7z6gb","sub18","06","02","rl","test","74","img/o_t_check.png","5","72","pattern,shape,color","62","0",""
"null","173665","HierDy7pw7z6gb","sub18","06","02","feedback","test","null","","","na","","62","",""
"1957.0999999996275","175623","HierDy7pw7z6gb","sub18","06","02","rl","test","83","img/r_t_stripes.png","2","83","pattern,shape,color","63","1",""
"null","176632","HierDy7pw7z6gb","sub18","06","02","feedback","test","null","","","na","","63","",""
"702.5999999996275","177335","HierDy7pw7z6gb","sub18","06","02","rl","test","65","img/o_t_stripes.png","1","65","pattern,shape,color","64","1",""
"null","178348","HierDy7pw7z6gb","sub18","06","02","feedback","test","null","","","na","","64","",""
"776.4000000003725","179125","HierDy7pw7z6gb","sub18","06","02","rl","test","83","img/r_t_stripes.png","2","83","pattern,shape,color","65","1",""
"null","180138","HierDy7pw7z6gb","sub18","06","02","feedback","test","null","","","na","","65","",""
"959.8000000007451","181099","HierDy7pw7z6gb","sub18","06","02","rl","test","70","img/o_s_stripes.png","3","68","pattern,shape,color","66","0",""
"null","182107","HierDy7pw7z6gb","sub18","06","02","feedback","test","null","","","na","","66","",""
"1147.2000000011176","183256","HierDy7pw7z6gb","sub18","06","02","rl","test","75","img/o_s_check.png","7","75","pattern,shape,color","67","1",""
"null","184263","HierDy7pw7z6gb","sub18","06","02","feedback","test","null","","","na","","67","",""
"1566.4000000003725","185831","HierDy7pw7z6gb","sub18","06","02","rl","test","65","img/o_t_stripes.png","1","65","pattern,shape,color","68","1",""
"null","186842","HierDy7pw7z6gb","sub18","06","02","feedback","test","null","","","na","","68","",""
"786.3000000007451","187629","HierDy7pw7z6gb","sub18","06","02","rl","test","70","img/r_s_stripes.png","4","70","pattern,shape,color","69","1",""
"null","188632","HierDy7pw7z6gb","sub18","06","02","feedback","test","null","","","na","","69","",""
"1105.4000000003725","189739","HierDy7pw7z6gb","sub18","06","02","rl","test","75","img/o_s_check.png","7","75","pattern,shape,color","70","1",""
"null","190745","HierDy7pw7z6gb","sub18","06","02","feedback","test","null","","","na","","70","",""
"1116.5","191863","HierDy7pw7z6gb","sub18","06","02","rl","test","74","img/r_t_check.png","6","74","pattern,shape,color","71","1",""
"null","192875","HierDy7pw7z6gb","sub18","06","02","feedback","test","null","","","na","","71","",""
"1000.9000000003725","193877","HierDy7pw7z6gb","sub18","06","02","rl","test","75","img/r_s_check.png","8","76","pattern,shape,color","72","0",""
"null","194882","HierDy7pw7z6gb","sub18","06","02","feedback","test","null","","","na","","72","",""
"1518.800000000745","196402","HierDy7pw7z6gb","sub18","06","02","rl","test","74","img/o_t_check.png","5","72","pattern,shape,color","73","0",""
"null","197408","HierDy7pw7z6gb","sub18","06","02","feedback","test","null","","","na","","73","",""
"734.5999999996275","198144","HierDy7pw7z6gb","sub18","06","02","rl","test","72","img/o_t_check.png","5","72","pattern,shape,color","74","1",""
"null","199152","HierDy7pw7z6gb","sub18","06","02","feedback","test","null","","","na","","74","",""
"1423.7999999988824","200577","HierDy7pw7z6gb","sub18","06","02","rl","test","65","img/o_t_stripes.png","1","65","pattern,shape,color","75","1",""
"null","201588","HierDy7pw7z6gb","sub18","06","02","feedback","test","null","","","na","","75","",""
"1106.7999999988824","202695","HierDy7pw7z6gb","sub18","06","02","rl","test","74","img/r_t_check.png","6","74","pattern,shape,color","76","1",""
"null","203704","HierDy7pw7z6gb","sub18","06","02","feedback","test","null","","","na","","76","",""
"942.7000000011176","204648","HierDy7pw7z6gb","sub18","06","02","rl","test","70","img/r_s_stripes.png","4","70","pattern,shape,color","77","1",""
"null","205657","HierDy7pw7z6gb","sub18","06","02","feedback","test","null","","","na","","77","",""
"1325.5","206984","HierDy7pw7z6gb","sub18","06","02","rl","test","83","img/r_t_stripes.png","2","83","pattern,shape,color","78","1",""
"null","207992","HierDy7pw7z6gb","sub18","06","02","feedback","test","null","","","na","","78","",""
"1064.9000000003725","209058","HierDy7pw7z6gb","sub18","06","02","rl","test","70","img/o_s_stripes.png","3","68","pattern,shape,color","79","0",""
"null","210066","HierDy7pw7z6gb","sub18","06","02","feedback","test","null","","","na","","79","",""
"720.6999999992549","210788","HierDy7pw7z6gb","sub18","06","02","rl","test","74","img/r_t_check.png","6","74","pattern,shape,color","80","1",""
"null","211796","HierDy7pw7z6gb","sub18","06","02","feedback","test","null","","","na","","80","",""
"861.0999999996275","212658","HierDy7pw7z6gb","sub18","06","02","rl","test","70","img/o_s_stripes.png","3","68","pattern,shape,color","81","0",""
"null","213665","HierDy7pw7z6gb","sub18","06","02","feedback","test","null","","","na","","81","",""
"1005.3000000007451","214672","HierDy7pw7z6gb","sub18","06","02","rl","test","75","img/r_s_check.png","8","76","pattern,shape,color","82","0",""
"null","215681","HierDy7pw7z6gb","sub18","06","02","feedback","test","null","","","na","","82","",""
"699.3000000007451","216381","HierDy7pw7z6gb","sub18","06","02","rl","test","74","img/r_s_check.png","8","76","pattern,shape,color","83","0",""
"null","217388","HierDy7pw7z6gb","sub18","06","02","feedback","test","null","","","na","","83","",""
"1315.199999999255","218704","HierDy7pw7z6gb","sub18","06","02","rl","test","68","img/o_t_stripes.png","1","65","pattern,shape,color","84","0",""
"null","219713","HierDy7pw7z6gb","sub18","06","02","feedback","test","null","","","na","","84","",""
"843.5999999996275","220558","HierDy7pw7z6gb","sub18","06","02","rl","test","75","img/o_s_check.png","7","75","pattern,shape,color","85","1",""
"null","221561","HierDy7pw7z6gb","sub18","06","02","feedback","test","null","","","na","","85","",""
"777.1999999992549","222340","HierDy7pw7z6gb","sub18","06","02","rl","test","75","img/o_t_check.png","5","72","pattern,shape,color","86","0",""
"null","223345","HierDy7pw7z6gb","sub18","06","02","feedback","test","null","","","na","","86","",""
"1285.6000000014901","224632","HierDy7pw7z6gb","sub18","06","02","rl","test","68","img/o_s_stripes.png","3","68","pattern,shape,color","87","1",""
"null","225641","HierDy7pw7z6gb","sub18","06","02","feedback","test","null","","","na","","87","",""
"721.9000000003725","226364","HierDy7pw7z6gb","sub18","06","02","rl","test","75","img/o_t_check.png","5","72","pattern,shape,color","88","0",""
"null","227367","HierDy7pw7z6gb","sub18","06","02","feedback","test","null","","","na","","88","",""
"1111.5999999996275","228480","HierDy7pw7z6gb","sub18","06","02","rl","test","72","img/r_s_stripes.png","4","70","pattern,shape,color","89","0",""
"null","229490","HierDy7pw7z6gb","sub18","06","02","feedback","test","null","","","na","","89","",""
"1248.9000000003725","230740","HierDy7pw7z6gb","sub18","06","02","rl","test","74","img/r_t_check.png","6","74","pattern,shape,color","90","1",""
"null","231746","HierDy7pw7z6gb","sub18","06","02","feedback","test","null","","","na","","90","",""
"2060.0999999996275","233808","HierDy7pw7z6gb","sub18","06","02","rl","test","83","img/r_t_stripes.png","2","83","pattern,shape,color","91","1",""
"null","234817","HierDy7pw7z6gb","sub18","06","02","feedback","test","null","","","na","","91","",""
"1387.9000000003725","236206","HierDy7pw7z6gb","sub18","06","02","rl","test","70","img/r_s_stripes.png","4","70","pattern,shape,color","92","1",""
"null","237212","HierDy7pw7z6gb","sub18","06","02","feedback","test","null","","","na","","92","",""
"920.9000000003725","238134","HierDy7pw7z6gb","sub18","06","02","rl","test","65","img/o_t_stripes.png","1","65","pattern,shape,color","93","1",""
"null","239138","HierDy7pw7z6gb","sub18","06","02","feedback","test","null","","","na","","93","",""
"768.5","239908","HierDy7pw7z6gb","sub18","06","02","rl","test","83","img/r_t_stripes.png","2","83","pattern,shape,color","94","1",""
"null","240917","HierDy7pw7z6gb","sub18","06","02","feedback","test","null","","","na","","94","",""
"1197.9000000003725","242116","HierDy7pw7z6gb","sub18","06","02","rl","test","75","img/r_s_check.png","8","76","pattern,shape,color","95","0",""
"null","243121","HierDy7pw7z6gb","sub18","06","02","feedback","test","null","","","na","","95","",""
"1705.9000000003725","244828","HierDy7pw7z6gb","sub18","06","02","rl","test","75","img/o_s_check.png","7","75","pattern,shape,color","96","1",""
"null","245834","HierDy7pw7z6gb","sub18","06","02","feedback","test","null","","","na","","96","",""
"577.8999999985099","246414","HierDy7pw7z6gb","sub18","06","02","rl","test","75","img/o_s_check.png","7","75","pattern,shape,color","97","1",""
"null","247416","HierDy7pw7z6gb","sub18","06","02","feedback","test","null","","","na","","97","",""
"1175.5999999996275","248593","HierDy7pw7z6gb","sub18","06","02","rl","test","83","img/r_t_stripes.png","2","83","pattern,shape,color","98","1",""
"null","249601","HierDy7pw7z6gb","sub18","06","02","feedback","test","null","","","na","","98","",""
"527.3000000007451","250130","HierDy7pw7z6gb","sub18","06","02","rl","test","65","img/o_t_stripes.png","1","65","pattern,shape,color","99","1",""
"null","251137","HierDy7pw7z6gb","sub18","06","02","feedback","test","null","","","na","","99","",""
"1103.199999999255","252242","HierDy7pw7z6gb","sub18","06","02","rl","test","76","img/r_s_check.png","8","76","pattern,shape,color","100","1",""
"null","253249","HierDy7pw7z6gb","sub18","06","02","feedback","test","null","","","na","","100","",""
"874","254125","HierDy7pw7z6gb","sub18","06","02","rl","test","70","img/o_s_stripes.png","3","68","pattern,shape,color","101","0",""
"null","255133","HierDy7pw7z6gb","sub18","06","02","feedback","test","null","","","na","","101","",""
"713.9000000003725","255849","HierDy7pw7z6gb","sub18","06","02","rl","test","75","img/o_t_check.png","5","72","pattern,shape,color","102","0",""
"null","256859","HierDy7pw7z6gb","sub18","06","02","feedback","test","null","","","na","","102","",""
"1195.4000000003725","258055","HierDy7pw7z6gb","sub18","06","02","rl","test","70","img/r_s_stripes.png","4","70","pattern,shape,color","103","1",""
"null","259061","HierDy7pw7z6gb","sub18","06","02","feedback","test","null","","","na","","103","",""
"917.8000000007451","259981","HierDy7pw7z6gb","sub18","06","02","rl","test","74","img/r_t_check.png","6","74","pattern,shape,color","104","1",""
"null","260989","HierDy7pw7z6gb","sub18","06","02","feedback","test","null","","","na","","104","",""
"1417.7000000011176","262408","HierDy7pw7z6gb","sub18","06","02","rl","test","83","img/r_t_stripes.png","2","83","pattern,shape,color","105","1",""
"null","263418","HierDy7pw7z6gb","sub18","06","02","feedback","test","null","","","na","","105","",""
"1149.0999999996275","264568","HierDy7pw7z6gb","sub18","06","02","rl","test","76","img/o_s_check.png","7","75","pattern,shape,color","106","0",""
"null","265578","HierDy7pw7z6gb","sub18","06","02","feedback","test","null","","","na","","106","",""
"950.8000000007451","266530","HierDy7pw7z6gb","sub18","06","02","rl","test","74","img/o_t_check.png","5","72","pattern,shape,color","107","0",""
"null","267537","HierDy7pw7z6gb","sub18","06","02","feedback","test","null","","","na","","107","",""
"862.8000000007451","268401","HierDy7pw7z6gb","sub18","06","02","rl","test","75","img/r_s_check.png","8","76","pattern,shape,color","108","0",""
"null","269414","HierDy7pw7z6gb","sub18","06","02","feedback","test","null","","","na","","108","",""
"1974.7999999988824","271390","HierDy7pw7z6gb","sub18","06","02","rl","test","70","img/o_s_stripes.png","3","68","pattern,shape,color","109","0",""
"null","272398","HierDy7pw7z6gb","sub18","06","02","feedback","test","null","","","na","","109","",""
"1235.0999999996275","273634","HierDy7pw7z6gb","sub18","06","02","rl","test","70","img/r_s_stripes.png","4","70","pattern,shape,color","110","1",""
"null","274642","HierDy7pw7z6gb","sub18","06","02","feedback","test","null","","","na","","110","",""
"1379.1000000014901","276025","HierDy7pw7z6gb","sub18","06","02","rl","test","75","img/r_t_check.png","6","74","pattern,shape,color","111","0",""
"null","277035","HierDy7pw7z6gb","sub18","06","02","feedback","test","null","","","na","","111","",""
"1052.699999999255","278090","HierDy7pw7z6gb","sub18","06","02","rl","test","83","img/o_t_stripes.png","1","65","pattern,shape,color","112","0",""
"null","279098","HierDy7pw7z6gb","sub18","06","02","feedback","test","null","","","na","","112","",""
"864.4000000003725","279963","HierDy7pw7z6gb","sub18","06","02","rl","test","70","img/o_s_stripes.png","3","68","pattern,shape,color","113","0",""
"null","280971","HierDy7pw7z6gb","sub18","06","02","feedback","test","null","","","na","","113","",""
"959.6999999992549","281932","HierDy7pw7z6gb","sub18","06","02","rl","test","74","img/r_t_check.png","6","74","pattern,shape,color","114","1",""
"null","282941","HierDy7pw7z6gb","sub18","06","02","feedback","test","null","","","na","","114","",""
"1355.800000000745","284298","HierDy7pw7z6gb","sub18","06","02","rl","test","70","img/r_t_stripes.png","2","83","pattern,shape,color","115","0",""
"null","285310","HierDy7pw7z6gb","sub18","06","02","feedback","test","null","","","na","","115","",""
"null","287819","HierDy7pw7z6gb","sub18","06","02","rl","test","null","img/r_s_stripes.png","4","70","pattern,shape,color","116","0",""
"null","288826","HierDy7pw7z6gb","sub18","06","02","feedback","test","null","","","na","","116","",""
"711.5","289539","HierDy7pw7z6gb","sub18","06","02","rl","test","68","img/o_t_stripes.png","1","65","pattern,shape,color","117","0",""
"null","290546","HierDy7pw7z6gb","sub18","06","02","feedback","test","null","","","na","","117","",""
"2286","292834","HierDy7pw7z6gb","sub18","06","02","rl","test","70","img/r_s_stripes.png","4","70","pattern,shape,color","118","1",""
"null","293842","HierDy7pw7z6gb","sub18","06","02","feedback","test","null","","","na","","118","",""
"1095.5","294939","HierDy7pw7z6gb","sub18","06","02","rl","test","76","img/r_s_check.png","8","76","pattern,shape,color","119","1",""
"null","295947","HierDy7pw7z6gb","sub18","06","02","feedback","test","null","","","na","","119","",""
"934.9000000003725","296883","HierDy7pw7z6gb","sub18","06","02","rl","test","74","img/o_t_check.png","5","72","pattern,shape,color","120","0",""
"null","297891","HierDy7pw7z6gb","sub18","06","02","feedback","test","null","","","na","","120","",""
"754.5","298647","HierDy7pw7z6gb","sub18","06","02","rl","test","75","img/o_s_check.png","7","75","pattern,shape,color","121","1",""
"null","299654","HierDy7pw7z6gb","sub18","06","02","feedback","test","null","","","na","","121","",""
"620.5999999996275","300276","HierDy7pw7z6gb","sub18","06","02","rl","test","75","img/o_s_check.png","7","75","pattern,shape,color","122","1",""
"null","301284","HierDy7pw7z6gb","sub18","06","02","feedback","test","null","","","na","","122","",""
"2368.39999999851","303654","HierDy7pw7z6gb","sub18","06","02","rl","test","70","img/r_t_check.png","6","74","pattern,shape,color","123","0",""
"null","304659","HierDy7pw7z6gb","sub18","06","02","feedback","test","null","","","na","","123","",""
"1752.2000000011176","306413","HierDy7pw7z6gb","sub18","06","02","rl","test","75","img/r_s_check.png","8","76","pattern,shape,color","124","0",""
"null","307420","HierDy7pw7z6gb","sub18","06","02","feedback","test","null","","","na","","124","",""
"868.6000000014901","308290","HierDy7pw7z6gb","sub18","06","02","rl","test","83","img/o_t_stripes.png","1","65","pattern,shape,color","125","0",""
"null","309300","HierDy7pw7z6gb","sub18","06","02","feedback","test","null","","","na","","125","",""
"1248.800000000745","310550","HierDy7pw7z6gb","sub18","06","02","rl","test","74","img/o_t_check.png","5","72","pattern,shape,color","126","0",""
"null","311555","HierDy7pw7z6gb","sub18","06","02","feedback","test","null","","","na","","126","",""
"1049.2000000011176","312605","HierDy7pw7z6gb","sub18","06","02","rl","test","83","img/r_t_stripes.png","2","83","pattern,shape,color","127","1",""
"null","313613","HierDy7pw7z6gb","sub18","06","02","feedback","test","null","","","na","","127","",""
"729.0999999996275","314343","HierDy7pw7z6gb","sub18","06","02","rl","test","70","img/o_s_stripes.png","3","68","pattern,shape,color","128","0",""
"null","315346","HierDy7pw7z6gb","sub18","06","02","feedback","test","null","","","na","","128","",""
"1674.4000000003725","317021","HierDy7pw7z6gb","sub18","06","02","rl","test","83","img/o_t_stripes.png","1","65","pattern,shape,color","129","0",""
"null","318030","HierDy7pw7z6gb","sub18","06","02","feedback","test","null","","","na","","129","",""
"959.7000000011176","318991","HierDy7pw7z6gb","sub18","06","02","rl","test","68","img/o_s_stripes.png","3","68","pattern,shape,color","130","1",""
"null","319995","HierDy7pw7z6gb","sub18","06","02","feedback","test","null","","","na","","130","",""
"822.3000000007451","320818","HierDy7pw7z6gb","sub18","06","02","rl","test","83","img/r_t_stripes.png","2","83","pattern,shape,color","131","1",""
"null","321827","HierDy7pw7z6gb","sub18","06","02","feedback","test","null","","","na","","131","",""
"715.2999999988824","322543","HierDy7pw7z6gb","sub18","06","02","rl","test","70","img/r_s_stripes.png","4","70","pattern,shape,color","132","1",""
"null","323547","HierDy7pw7z6gb","sub18","06","02","feedback","test","null","","","na","","132","",""
"1194.699999999255","324743","HierDy7pw7z6gb","sub18","06","02","rl","test","74","img/r_t_check.png","6","74","pattern,shape,color","133","1",""
"null","325747","HierDy7pw7z6gb","sub18","06","02","feedback","test","null","","","na","","133","",""
"1251","326999","HierDy7pw7z6gb","sub18","06","02","rl","test","75","img/o_s_check.png","7","75","pattern,shape,color","134","1",""
"null","328002","HierDy7pw7z6gb","sub18","06","02","feedback","test","null","","","na","","134","",""
"887.3000000007451","328891","HierDy7pw7z6gb","sub18","06","02","rl","test","70","img/r_s_stripes.png","4","70","pattern,shape,color","135","1",""
"null","329902","HierDy7pw7z6gb","sub18","06","02","feedback","test","null","","","na","","135","",""
"1298.7000000011176","331202","HierDy7pw7z6gb","sub18","06","02","rl","test","72","img/o_t_check.png","5","72","pattern,shape,color","136","1",""
"null","332215","HierDy7pw7z6gb","sub18","06","02","feedback","test","null","","","na","","136","",""
"798.4000000003725","333014","HierDy7pw7z6gb","sub18","06","02","rl","test","72","img/o_t_check.png","5","72","pattern,shape,color","137","1",""
"null","334019","HierDy7pw7z6gb","sub18","06","02","feedback","test","null","","","na","","137","",""
"1539.5999999996275","335560","HierDy7pw7z6gb","sub18","06","02","rl","test","76","img/r_s_check.png","8","76","pattern,shape,color","138","1",""
"null","336562","HierDy7pw7z6gb","sub18","06","02","feedback","test","null","","","na","","138","",""
"866.2000000011176","337429","HierDy7pw7z6gb","sub18","06","02","rl","test","74","img/r_t_check.png","6","74","pattern,shape,color","139","1",""
"null","338436","HierDy7pw7z6gb","sub18","06","02","feedback","test","null","","","na","","139","",""
"1348.6000000014901","339786","HierDy7pw7z6gb","sub18","06","02","rl","test","83","img/o_t_stripes.png","1","65","pattern,shape,color","140","0",""
"null","340795","HierDy7pw7z6gb","sub18","06","02","feedback","test","null","","","na","","140","",""
"1219.300000000745","342016","HierDy7pw7z6gb","sub18","06","02","rl","test","76","img/r_s_check.png","8","76","pattern,shape,color","141","1",""
"null","343022","HierDy7pw7z6gb","sub18","06","02","feedback","test","null","","","na","","141","",""
"558.5999999996275","343582","HierDy7pw7z6gb","sub18","06","02","rl","test","75","img/o_s_check.png","7","75","pattern,shape,color","142","1",""
"null","344589","HierDy7pw7z6gb","sub18","06","02","feedback","test","null","","","na","","142","",""
"1637.5","346228","HierDy7pw7z6gb","sub18","06","02","rl","test","68","img/o_s_stripes.png","3","68","pattern,shape,color","143","1",""
"null","347237","HierDy7pw7z6gb","sub18","06","02","feedback","test","null","","","na","","143","",""
"435","347673","HierDy7pw7z6gb","sub18","06","02","rl","test","70","img/r_s_stripes.png","4","70","pattern,shape,color","144","1",""
"null","348676","HierDy7pw7z6gb","sub18","06","02","feedback","test","null","","","na","","144","",""
"847.2000000011176","349524","HierDy7pw7z6gb","sub18","06","02","rl","test","70","img/o_s_stripes.png","3","68","pattern,shape,color","145","0",""
"null","350533","HierDy7pw7z6gb","sub18","06","02","feedback","test","null","","","na","","145","",""
"1200.800000000745","351735","HierDy7pw7z6gb","sub18","06","02","rl","test","83","img/r_t_stripes.png","2","83","pattern,shape,color","146","1",""
"null","352739","HierDy7pw7z6gb","sub18","06","02","feedback","test","null","","","na","","146","",""
"795.9000000003725","353536","HierDy7pw7z6gb","sub18","06","02","rl","test","65","img/o_t_stripes.png","1","65","pattern,shape,color","147","1",""
"null","354540","HierDy7pw7z6gb","sub18","06","02","feedback","test","null","","","na","","147","",""
"1592.5","356134","HierDy7pw7z6gb","sub18","06","02","rl","test","75","img/o_s_check.png","7","75","pattern,shape,color","148","1",""
"null","357140","HierDy7pw7z6gb","sub18","06","02","feedback","test","null","","","na","","148","",""
"594.2000000011176","357736","HierDy7pw7z6gb","sub18","06","02","rl","test","75","img/o_s_check.png","7","75","pattern,shape,color","149","1",""
"null","358744","HierDy7pw7z6gb","sub18","06","02","feedback","test","null","","","na","","149","",""
"922.6000000014901","359668","HierDy7pw7z6gb","sub18","06","02","rl","test","83","img/r_t_stripes.png","2","83","pattern,shape,color","150","1",""
"null","360680","HierDy7pw7z6gb","sub18","06","02","feedback","test","null","","","na","","150","",""
"1282.9000000003725","361964","HierDy7pw7z6gb","sub18","06","02","rl","test","72","img/r_t_check.png","6","74","pattern,shape,color","151","0",""
"null","362973","HierDy7pw7z6gb","sub18","06","02","feedback","test","null","","","na","","151","",""
"1054.2000000011176","364029","HierDy7pw7z6gb","sub18","06","02","rl","test","72","img/o_t_check.png","5","72","pattern,shape,color","152","1",""
"null","365035","HierDy7pw7z6gb","sub18","06","02","feedback","test","null","","","na","","152","",""
"538.8000000007451","365575","HierDy7pw7z6gb","sub18","06","02","rl","test","74","img/r_t_check.png","6","74","pattern,shape,color","153","1",""
"null","366583","HierDy7pw7z6gb","sub18","06","02","feedback","test","null","","","na","","153","",""
"1164.9000000003725","367749","HierDy7pw7z6gb","sub18","06","02","rl","test","76","img/r_s_check.png","8","76","pattern,shape,color","154","1",""
"null","368759","HierDy7pw7z6gb","sub18","06","02","feedback","test","null","","","na","","154","",""
"979.4000000003725","369739","HierDy7pw7z6gb","sub18","06","02","rl","test","70","img/o_s_stripes.png","3","68","pattern,shape,color","155","0",""
"null","370748","HierDy7pw7z6gb","sub18","06","02","feedback","test","null","","","na","","155","",""
"1417.4000000003725","372167","HierDy7pw7z6gb","sub18","06","02","rl","test","83","img/o_t_stripes.png","1","65","pattern,shape,color","156","0",""
"null","373172","HierDy7pw7z6gb","sub18","06","02","feedback","test","null","","","na","","156","",""
"1426.199999999255","374600","HierDy7pw7z6gb","sub18","06","02","rl","test","74","img/o_t_check.png","5","72","pattern,shape,color","157","0",""
"null","375608","HierDy7pw7z6gb","sub18","06","02","feedback","test","null","","","na","","157","",""
"817.0999999996275","376426","HierDy7pw7z6gb","sub18","06","02","rl","test","70","img/r_s_stripes.png","4","70","pattern,shape,color","158","1",""
"null","377436","HierDy7pw7z6gb","sub18","06","02","feedback","test","null","","","na","","158","",""
"1376","378813","HierDy7pw7z6gb","sub18","06","02","rl","test","65","img/o_t_stripes.png","1","65","pattern,shape,color","159","1",""
"null","379820","HierDy7pw7z6gb","sub18","06","02","feedback","test","null","","","na","","159","",""
"null","382323","HierDy7pw7z6gb","sub18","06","02","rl","test","null","img/o_s_check.png","7","75","pattern,shape,color","160","0",""
"null","383332","HierDy7pw7z6gb","sub18","06","02","feedback","test","null","","","na","","160","",""
"868","384202","HierDy7pw7z6gb","sub18","06","02","rl","test","76","img/r_s_check.png","8","76","pattern,shape,color","161","1",""
"null","385204","HierDy7pw7z6gb","sub18","06","02","feedback","test","null","","","na","","161","",""
"647.5999999996275","385853","HierDy7pw7z6gb","sub18","06","02","rl","test","76","img/r_s_check.png","8","76","pattern,shape,color","162","1",""
"null","386860","HierDy7pw7z6gb","sub18","06","02","feedback","test","null","","","na","","162","",""
"759.8000000007451","387621","HierDy7pw7z6gb","sub18","06","02","rl","test","70","img/o_s_stripes.png","3","68","pattern,shape,color","163","0",""
"null","388629","HierDy7pw7z6gb","sub18","06","02","feedback","test","null","","","na","","163","",""
"969.9000000003725","389600","HierDy7pw7z6gb","sub18","06","02","rl","test","83","img/r_t_stripes.png","2","83","pattern,shape,color","164","1",""
"null","390608","HierDy7pw7z6gb","sub18","06","02","feedback","test","null","","","na","","164","",""
"765.3000000007451","391375","HierDy7pw7z6gb","sub18","06","02","rl","test","75","img/r_t_check.png","6","74","pattern,shape,color","165","0",""
"null","392380","HierDy7pw7z6gb","sub18","06","02","feedback","test","null","","","na","","165","",""
"2052.800000000745","394435","HierDy7pw7z6gb","sub18","06","02","rl","test","83","img/r_t_stripes.png","2","83","pattern,shape,color","166","1",""
"null","395444","HierDy7pw7z6gb","sub18","06","02","feedback","test","null","","","na","","166","",""
"1486.4000000003725","396931","HierDy7pw7z6gb","sub18","06","02","rl","test","70","img/r_s_stripes.png","4","70","pattern,shape,color","167","1",""
"null","397945","HierDy7pw7z6gb","sub18","06","02","feedback","test","null","","","na","","167","",""
"1111.7000000011176","399058","HierDy7pw7z6gb","sub18","06","02","rl","test","72","img/o_t_check.png","5","72","pattern,shape,color","168","1",""
"null","400061","HierDy7pw7z6gb","sub18","06","02","feedback","test","null","","","na","","168","",""
"1505","401567","HierDy7pw7z6gb","sub18","06","02","rl","test","83","img/r_t_stripes.png","2","83","pattern,shape,color","169","1",""
"null","402574","HierDy7pw7z6gb","sub18","06","02","feedback","test","null","","","na","","169","",""
"1329.800000000745","403905","HierDy7pw7z6gb","sub18","06","02","rl","test","76","img/r_s_check.png","8","76","pattern,shape,color","170","1",""
"null","404911","HierDy7pw7z6gb","sub18","06","02","feedback","test","null","","","na","","170","",""
"1903.800000000745","406816","HierDy7pw7z6gb","sub18","06","02","rl","test","70","img/r_s_stripes.png","4","70","pattern,shape,color","171","1",""
"null","407822","HierDy7pw7z6gb","sub18","06","02","feedback","test","null","","","na","","171","",""
"1134","408957","HierDy7pw7z6gb","sub18","06","02","rl","test","65","img/o_t_stripes.png","1","65","pattern,shape,color","172","1",""
"null","409966","HierDy7pw7z6gb","sub18","06","02","feedback","test","null","","","na","","172","",""
"1141.300000000745","411108","HierDy7pw7z6gb","sub18","06","02","rl","test","72","img/o_t_check.png","5","72","pattern,shape,color","173","1",""
"null","412117","HierDy7pw7z6gb","sub18","06","02","feedback","test","null","","","na","","173","",""
"1036.7000000011176","413155","HierDy7pw7z6gb","sub18","06","02","rl","test","75","img/o_s_check.png","7","75","pattern,shape,color","174","1",""
"null","414165","HierDy7pw7z6gb","sub18","06","02","feedback","test","null","","","na","","174","",""
"691.1999999992549","414858","HierDy7pw7z6gb","sub18","06","02","rl","test","74","img/r_t_check.png","6","74","pattern,shape,color","175","1",""
"null","415863","HierDy7pw7z6gb","sub18","06","02","feedback","test","null","","","na","","175","",""
"628.4000000003725","416493","HierDy7pw7z6gb","sub18","06","02","rl","test","76","img/r_s_check.png","8","76","pattern,shape,color","176","1",""
"null","417501","HierDy7pw7z6gb","sub18","06","02","feedback","test","null","","","na","","176","",""
"595","418097","HierDy7pw7z6gb","sub18","06","02","rl","test","74","img/r_t_check.png","6","74","pattern,shape,color","177","1",""
"null","419105","HierDy7pw7z6gb","sub18","06","02","feedback","test","null","","","na","","177","",""
"729.3000000007451","419835","HierDy7pw7z6gb","sub18","06","02","rl","test","70","img/o_s_stripes.png","3","68","pattern,shape,color","178","0",""
"null","420845","HierDy7pw7z6gb","sub18","06","02","feedback","test","null","","","na","","178","",""
"1278.7999999988824","422125","HierDy7pw7z6gb","sub18","06","02","rl","test","65","img/o_t_stripes.png","1","65","pattern,shape,color","179","1",""
"null","423133","HierDy7pw7z6gb","sub18","06","02","feedback","test","null","","","na","","179","",""
"1480.5999999996275","424614","HierDy7pw7z6gb","sub18","06","02","rl","test","83","img/r_t_stripes.png","2","83","pattern,shape,color","180","1",""
"null","425622","HierDy7pw7z6gb","sub18","06","02","feedback","test","null","","","na","","180","",""
"612","426235","HierDy7pw7z6gb","sub18","06","02","rl","test","83","img/r_t_stripes.png","2","83","pattern,shape,color","181","1",""
"null","427249","HierDy7pw7z6gb","sub18","06","02","feedback","test","null","","","na","","181","",""
"1336.4000000003725","428587","HierDy7pw7z6gb","sub18","06","02","rl","test","68","img/o_s_stripes.png","3","68","pattern,shape,color","182","1",""
"null","429593","HierDy7pw7z6gb","sub18","06","02","feedback","test","null","","","na","","182","",""
"1661.199999999255","431255","HierDy7pw7z6gb","sub18","06","02","rl","test","72","img/o_t_check.png","5","72","pattern,shape,color","183","1",""
"null","432263","HierDy7pw7z6gb","sub18","06","02","feedback","test","null","","","na","","183","",""
"1203.199999999255","433467","HierDy7pw7z6gb","sub18","06","02","rl","test","70","img/r_s_stripes.png","4","70","pattern,shape,color","184","1",""
"null","434473","HierDy7pw7z6gb","sub18","06","02","feedback","test","null","","","na","","184","",""
"1393.800000000745","435868","HierDy7pw7z6gb","sub18","06","02","rl","test","65","img/o_t_stripes.png","1","65","pattern,shape,color","185","1",""
"null","436878","HierDy7pw7z6gb","sub18","06","02","feedback","test","null","","","na","","185","",""
"1124.4000000003725","438003","HierDy7pw7z6gb","sub18","06","02","rl","test","75","img/o_s_check.png","7","75","pattern,shape,color","186","1",""
"null","439008","HierDy7pw7z6gb","sub18","06","02","feedback","test","null","","","na","","186","",""
"1040.7000000011176","440050","HierDy7pw7z6gb","sub18","06","02","rl","test","68","img/o_s_stripes.png","3","68","pattern,shape,color","187","1",""
"null","441056","HierDy7pw7z6gb","sub18","06","02","feedback","test","null","","","na","","187","",""
"884.5","441942","HierDy7pw7z6gb","sub18","06","02","rl","test","70","img/r_s_stripes.png","4","70","pattern,shape,color","188","1",""
"null","442950","HierDy7pw7z6gb","sub18","06","02","feedback","test","null","","","na","","188","",""
"1652","444604","HierDy7pw7z6gb","sub18","06","02","rl","test","75","img/o_s_check.png","7","75","pattern,shape,color","189","1",""
"null","445618","HierDy7pw7z6gb","sub18","06","02","feedback","test","null","","","na","","189","",""
"1060.2000000011176","446680","HierDy7pw7z6gb","sub18","06","02","rl","test","72","img/o_t_check.png","5","72","pattern,shape,color","190","1",""
"null","447689","HierDy7pw7z6gb","sub18","06","02","feedback","test","null","","","na","","190","",""
"787","448477","HierDy7pw7z6gb","sub18","06","02","rl","test","76","img/r_s_check.png","8","76","pattern,shape,color","191","1",""
"null","449485","HierDy7pw7z6gb","sub18","06","02","feedback","test","null","","","na","","191","",""
"685.6999999992549","450172","HierDy7pw7z6gb","sub18","06","02","rl","test","74","img/r_t_check.png","6","74","pattern,shape,color","192","1",""
"null","451186","HierDy7pw7z6gb","sub18","06","02","feedback","test","null","","","na","","192","",""
"1521.800000000745","452709","HierDy7pw7z6gb","sub18","06","02","rl","test","83","img/o_t_stripes.png","1","65","pattern,shape,color","193","0",""
"null","453717","HierDy7pw7z6gb","sub18","06","02","feedback","test","null","","","na","","193","",""
"847.3999999985099","454566","HierDy7pw7z6gb","sub18","06","02","rl","test","83","img/r_t_stripes.png","2","83","pattern,shape,color","194","1",""
"null","455575","HierDy7pw7z6gb","sub18","06","02","feedback","test","null","","","na","","194","",""
"1377.9000000003725","456954","HierDy7pw7z6gb","sub18","06","02","rl","test","74","img/o_t_check.png","5","72","pattern,shape,color","195","0",""
"null","457962","HierDy7pw7z6gb","sub18","06","02","feedback","test","null","","","na","","195","",""
"1086.800000000745","459050","HierDy7pw7z6gb","sub18","06","02","rl","test","68","img/o_s_stripes.png","3","68","pattern,shape,color","196","1",""
"null","460058","HierDy7pw7z6gb","sub18","06","02","feedback","test","null","","","na","","196","",""
"578.3999999985099","460637","HierDy7pw7z6gb","sub18","06","02","rl","test","70","img/r_s_stripes.png","4","70","pattern,shape,color","197","1",""
"null","461645","HierDy7pw7z6gb","sub18","06","02","feedback","test","null","","","na","","197","",""
"657.9000000003725","462304","HierDy7pw7z6gb","sub18","06","02","rl","test","70","img/r_s_stripes.png","4","70","pattern,shape,color","198","1",""
"null","463312","HierDy7pw7z6gb","sub18","06","02","feedback","test","null","","","na","","198","",""
"1105.5","464419","HierDy7pw7z6gb","sub18","06","02","rl","test","76","img/r_s_check.png","8","76","pattern,shape,color","199","1",""
"null","465425","HierDy7pw7z6gb","sub18","06","02","feedback","test","null","","","na","","199","",""
"706","466132","HierDy7pw7z6gb","sub18","06","02","rl","test","75","img/o_s_check.png","7","75","pattern,shape,color","200","1",""
"null","467146","HierDy7pw7z6gb","sub18","06","02","feedback","test","null","","","na","","200","",""
"913.4000000003725","468061","HierDy7pw7z6gb","sub18","06","02","rl","test","83","img/r_t_stripes.png","2","83","pattern,shape,color","201","1",""
"null","469070","HierDy7pw7z6gb","sub18","06","02","feedback","test","null","","","na","","201","",""
"1379.699999999255","470451","HierDy7pw7z6gb","sub18","06","02","rl","test","74","img/r_t_check.png","6","74","pattern,shape,color","202","1",""
"null","471457","HierDy7pw7z6gb","sub18","06","02","feedback","test","null","","","na","","202","",""
"1190.8999999985099","472649","HierDy7pw7z6gb","sub18","06","02","rl","test","75","img/o_s_check.png","7","75","pattern,shape,color","203","1",""
"null","473657","HierDy7pw7z6gb","sub18","06","02","feedback","test","null","","","na","","203","",""
"881","474540","HierDy7pw7z6gb","sub18","06","02","rl","test","72","img/r_t_check.png","6","74","pattern,shape,color","204","0",""
"null","475543","HierDy7pw7z6gb","sub18","06","02","feedback","test","null","","","na","","204","",""
"1122.0999999996275","476666","HierDy7pw7z6gb","sub18","06","02","rl","test","83","img/o_t_stripes.png","1","65","pattern,shape,color","205","0",""
"null","477672","HierDy7pw7z6gb","sub18","06","02","feedback","test","null","","","na","","205","",""
"1635.199999999255","479309","HierDy7pw7z6gb","sub18","06","02","rl","test","76","img/r_s_check.png","8","76","pattern,shape,color","206","1",""
"null","480320","HierDy7pw7z6gb","sub18","06","02","feedback","test","null","","","na","","206","",""
"1683.800000000745","482005","HierDy7pw7z6gb","sub18","06","02","rl","test","74","img/o_t_check.png","5","72","pattern,shape,color","207","0",""
"null","483014","HierDy7pw7z6gb","sub18","06","02","feedback","test","null","","","na","","207","",""
"467","483482","HierDy7pw7z6gb","sub18","06","02","rl","test","72","img/o_t_check.png","5","72","pattern,shape,color","208","1",""
"null","484491","HierDy7pw7z6gb","sub18","06","02","feedback","test","null","","","na","","208","",""
"1056.7000000011176","485548","HierDy7pw7z6gb","sub18","06","02","rl","test","75","img/o_s_check.png","7","75","pattern,shape,color","209","1",""
"null","486558","HierDy7pw7z6gb","sub18","06","02","feedback","test","null","","","na","","209","",""
"943","487502","HierDy7pw7z6gb","sub18","06","02","rl","test","68","img/o_s_stripes.png","3","68","pattern,shape,color","210","1",""
"null","488514","HierDy7pw7z6gb","sub18","06","02","feedback","test","null","","","na","","210","",""
"867.4000000003725","489383","HierDy7pw7z6gb","sub18","06","02","rl","test","70","img/r_s_stripes.png","4","70","pattern,shape,color","211","1",""
"null","490391","HierDy7pw7z6gb","sub18","06","02","feedback","test","null","","","na","","211","",""
"991.5999999996275","491384","HierDy7pw7z6gb","sub18","06","02","rl","test","76","img/r_s_check.png","8","76","pattern,shape,color","212","1",""
"null","492391","HierDy7pw7z6gb","sub18","06","02","feedback","test","null","","","na","","212","",""
"1459.300000000745","493852","HierDy7pw7z6gb","sub18","06","02","rl","test","65","img/o_t_stripes.png","1","65","pattern,shape,color","213","1",""
"null","494855","HierDy7pw7z6gb","sub18","06","02","feedback","test","null","","","na","","213","",""
"1279.4000000003725","496135","HierDy7pw7z6gb","sub18","06","02","rl","test","74","img/r_t_check.png","6","74","pattern,shape,color","214","1",""
"null","497143","HierDy7pw7z6gb","sub18","06","02","feedback","test","null","","","na","","214","",""
"831.8999999985099","497976","HierDy7pw7z6gb","sub18","06","02","rl","test","68","img/o_s_stripes.png","3","68","pattern,shape,color","215","1",""
"null","498985","HierDy7pw7z6gb","sub18","06","02","feedback","test","null","","","na","","215","",""
"1163.800000000745","500150","HierDy7pw7z6gb","sub18","06","02","rl","test","70","img/r_t_stripes.png","2","83","pattern,shape,color","216","0",""
"null","501159","HierDy7pw7z6gb","sub18","06","02","feedback","test","null","","","na","","216","",""
"1531.2000000011176","502691","HierDy7pw7z6gb","sub18","06","02","rl","test","83","img/o_t_stripes.png","1","65","pattern,shape,color","217","0",""
"null","503696","HierDy7pw7z6gb","sub18","06","02","feedback","test","null","","","na","","217","",""
"1202.5999999996275","504900","HierDy7pw7z6gb","sub18","06","02","rl","test","83","img/r_t_stripes.png","2","83","pattern,shape,color","218","1",""
"null","505907","HierDy7pw7z6gb","sub18","06","02","feedback","test","null","","","na","","218","",""
"1082.2000000011176","506990","HierDy7pw7z6gb","sub18","06","02","rl","test","72","img/o_t_check.png","5","72","pattern,shape,color","219","1",""
"null","508003","HierDy7pw7z6gb","sub18","06","02","feedback","test","null","","","na","","219","",""
"1456.9000000003725","509461","HierDy7pw7z6gb","sub18","06","02","rl","test","70","img/r_s_stripes.png","4","70","pattern,shape,color","220","1",""
"null","510475","HierDy7pw7z6gb","sub18","06","02","feedback","test","null","","","na","","220","",""
"1196.300000000745","511673","HierDy7pw7z6gb","sub18","06","02","rl","test","65","img/r_t_stripes.png","2","83","pattern,shape,color","221","0",""
"null","512681","HierDy7pw7z6gb","sub18","06","02","feedback","test","null","","","na","","221","",""
"752","513434","HierDy7pw7z6gb","sub18","06","02","rl","test","68","img/o_s_stripes.png","3","68","pattern,shape,color","222","1",""
"null","514442","HierDy7pw7z6gb","sub18","06","02","feedback","test","null","","","na","","222","",""
"1005.2999999988824","515449","HierDy7pw7z6gb","sub18","06","02","rl","test","75","img/o_s_check.png","7","75","pattern,shape,color","223","1",""
"null","516457","HierDy7pw7z6gb","sub18","06","02","feedback","test","null","","","na","","223","",""
"788.6999999992549","517247","HierDy7pw7z6gb","sub18","06","02","rl","test","74","img/r_t_check.png","6","74","pattern,shape,color","224","1",""
"null","518254","HierDy7pw7z6gb","sub18","06","02","feedback","test","null","","","na","","224","",""
"691.1000000014901","518946","HierDy7pw7z6gb","sub18","06","02","rl","test","74","img/r_t_check.png","6","74","pattern,shape,color","225","1",""
"null","519950","HierDy7pw7z6gb","sub18","06","02","feedback","test","null","","","na","","225","",""
"791.5","520743","HierDy7pw7z6gb","sub18","06","02","rl","test","76","img/r_s_check.png","8","76","pattern,shape,color","226","1",""
"null","521751","HierDy7pw7z6gb","sub18","06","02","feedback","test","null","","","na","","226","",""
"610.6999999992549","522363","HierDy7pw7z6gb","sub18","06","02","rl","test","76","img/r_s_check.png","8","76","pattern,shape,color","227","1",""
"null","523370","HierDy7pw7z6gb","sub18","06","02","feedback","test","null","","","na","","227","",""
"909.1999999992549","524280","HierDy7pw7z6gb","sub18","06","02","rl","test","75","img/o_s_check.png","7","75","pattern,shape,color","228","1",""
"null","525292","HierDy7pw7z6gb","sub18","06","02","feedback","test","null","","","na","","228","",""
"1036.300000000745","526329","HierDy7pw7z6gb","sub18","06","02","rl","test","83","img/o_t_stripes.png","1","65","pattern,shape,color","229","0",""
"null","527335","HierDy7pw7z6gb","sub18","06","02","feedback","test","null","","","na","","229","",""
"479.6000000014901","527816","HierDy7pw7z6gb","sub18","06","02","rl","test","65","img/o_s_stripes.png","3","68","pattern,shape,color","230","0",""
"null","528828","HierDy7pw7z6gb","sub18","06","02","feedback","test","null","","","na","","230","",""
"682.2000000011176","529511","HierDy7pw7z6gb","sub18","06","02","rl","test","70","img/r_s_stripes.png","4","70","pattern,shape,color","231","1",""
"null","530524","HierDy7pw7z6gb","sub18","06","02","feedback","test","null","","","na","","231","",""
"880","531405","HierDy7pw7z6gb","sub18","06","02","rl","test","75","img/o_t_check.png","5","72","pattern,shape,color","232","0",""
"null","532407","HierDy7pw7z6gb","sub18","06","02","feedback","test","null","","","na","","232","",""
"719.9000000003725","533128","HierDy7pw7z6gb","sub18","06","02","rl","test","76","img/r_s_check.png","8","76","pattern,shape,color","233","1",""
"null","534136","HierDy7pw7z6gb","sub18","06","02","feedback","test","null","","","na","","233","",""
"646.8999999985099","534785","HierDy7pw7z6gb","sub18","06","02","rl","test","75","img/o_t_check.png","5","72","pattern,shape,color","234","0",""
"null","535796","HierDy7pw7z6gb","sub18","06","02","feedback","test","null","","","na","","234","",""
"719.0999999996275","536516","HierDy7pw7z6gb","sub18","06","02","rl","test","70","img/r_s_stripes.png","4","70","pattern,shape,color","235","1",""
"null","537523","HierDy7pw7z6gb","sub18","06","02","feedback","test","null","","","na","","235","",""
"1048.8999999985099","538573","HierDy7pw7z6gb","sub18","06","02","rl","test","83","img/r_t_stripes.png","2","83","pattern,shape,color","236","1",""
"null","539577","HierDy7pw7z6gb","sub18","06","02","feedback","test","null","","","na","","236","",""
"1511.4000000003725","541090","HierDy7pw7z6gb","sub18","06","02","rl","test","75","img/o_s_check.png","7","75","pattern,shape,color","237","1",""
"null","542098","HierDy7pw7z6gb","sub18","06","02","feedback","test","null","","","na","","237","",""
"765.6999999992549","542865","HierDy7pw7z6gb","sub18","06","02","rl","test","70","img/r_s_stripes.png","4","70","pattern,shape,color","238","1",""
"null","543873","HierDy7pw7z6gb","sub18","06","02","feedback","test","null","","","na","","238","",""
"1037.0999999996275","544912","HierDy7pw7z6gb","sub18","06","02","rl","test","83","img/o_t_stripes.png","1","65","pattern,shape,color","239","0",""
"null","545920","HierDy7pw7z6gb","sub18","06","02","feedback","test","null","","","na","","239","",""
"1254.5999999996275","547176","HierDy7pw7z6gb","sub18","06","02","rl","test","74","img/r_t_check.png","6","74","pattern,shape,color","240","1",""
"null","548188","HierDy7pw7z6gb","sub18","06","02","feedback","test","null","","","na","","240","",""
"904.7999999988824","549094","HierDy7pw7z6gb","sub18","06","02","rl","test","68","img/o_s_stripes.png","3","68","pattern,shape,color","241","1",""
"null","550106","HierDy7pw7z6gb","sub18","06","02","feedback","test","null","","","na","","241","",""
"929.0999999996275","551036","HierDy7pw7z6gb","sub18","06","02","rl","test","83","img/r_t_stripes.png","2","83","pattern,shape,color","242","1",""
"null","552044","HierDy7pw7z6gb","sub18","06","02","feedback","test","null","","","na","","242","",""
"551.8000000007451","552597","HierDy7pw7z6gb","sub18","06","02","rl","test","65","img/o_t_stripes.png","1","65","pattern,shape,color","243","1",""
"null","553602","HierDy7pw7z6gb","sub18","06","02","feedback","test","null","","","na","","243","",""
"1413.0999999996275","555016","HierDy7pw7z6gb","sub18","06","02","rl","test","68","img/o_s_stripes.png","3","68","pattern,shape,color","244","1",""
"null","556025","HierDy7pw7z6gb","sub18","06","02","feedback","test","null","","","na","","244","",""
"1289.5","557316","HierDy7pw7z6gb","sub18","06","02","rl","test","75","img/o_s_check.png","7","75","pattern,shape,color","245","1",""
"null","558323","HierDy7pw7z6gb","sub18","06","02","feedback","test","null","","","na","","245","",""
"896.5","559221","HierDy7pw7z6gb","sub18","06","02","rl","test","72","img/o_t_check.png","5","72","pattern,shape,color","246","1",""
"null","560224","HierDy7pw7z6gb","sub18","06","02","feedback","test","null","","","na","","246","",""
"522.4000000003725","560748","HierDy7pw7z6gb","sub18","06","02","rl","test","74","img/r_t_check.png","6","74","pattern,shape,color","247","1",""
"null","561756","HierDy7pw7z6gb","sub18","06","02","feedback","test","null","","","na","","247","",""
"878.4000000003725","562636","HierDy7pw7z6gb","sub18","06","02","rl","test","76","img/r_s_check.png","8","76","pattern,shape,color","248","1",""
"null","563644","HierDy7pw7z6gb","sub18","06","02","feedback","test","null","","","na","","248","",""
"2596.5","566245","HierDy7pw7z6gb","sub18","06","02","","","","","","","","","","{""Q0"":""6""}"
"59717.5","625966","HierDy7pw7z6gb","sub18","06","02","","","","","","","","","","{""Q0"":""I divided the patterns to my left and right hand""}"
"3326.5","629294","HierDy7pw7z6gb","sub18","06","02","","","","","","","","","",""
