"rt","time_elapsed","subject","subID","group","day","trialType","phase","key_press","stim","stimNum","corrresp","hierarchy","trialNum","corr","responses"
"18068.70000000298","18072","HierDyj8sqzfyt","sub02","02","2","","","","","","","","","",""
"","21380","HierDyj8sqzfyt","sub02","02","2","fullscreen","","","","","","","","",""
"25732","47113","HierDyj8sqzfyt","sub02","02","2","","prac","","","","","","","",""
"8686.89999999106","55805","HierDyj8sqzfyt","sub02","02","2","","","32","","","","","","",""
"3989","59795","HierDyj8sqzfyt","sub02","02","2","","prac","","","","","","","",""
"1126","60924","HierDyj8sqzfyt","sub02","02","2","rl","test","70","img/p_d_diag.png","4","70","color,shape,pattern","1","1",""
"null","61932","HierDyj8sqzfyt","sub02","02","2","feedback","test","null","","","na","","1","",""
"1921.2999999970198","63856","HierDyj8sqzfyt","sub02","02","2","rl","test","83","img/p_d_check.png","3","68","color,shape,pattern","2","0",""
"null","64863","HierDyj8sqzfyt","sub02","02","2","feedback","test","null","","","na","","2","",""
"1481.4000000059605","66347","HierDyj8sqzfyt","sub02","02","2","rl","test","65","img/p_t_check.png","1","65","color,shape,pattern","3","1",""
"null","67350","HierDyj8sqzfyt","sub02","02","2","feedback","test","null","","","na","","3","",""
"1389.7999999970198","68743","HierDyj8sqzfyt","sub02","02","2","rl","test","74","img/o_t_diag.png","6","74","color,shape,pattern","4","1",""
"null","69749","HierDyj8sqzfyt","sub02","02","2","feedback","test","null","","","na","","4","",""
"1068.6000000089407","70820","HierDyj8sqzfyt","sub02","02","2","rl","test","72","img/o_t_check.png","5","72","color,shape,pattern","5","1",""
"null","71822","HierDyj8sqzfyt","sub02","02","2","feedback","test","null","","","na","","5","",""
"1533.7000000029802","73358","HierDyj8sqzfyt","sub02","02","2","rl","test","83","img/p_t_diag.png","2","83","color,shape,pattern","6","1",""
"null","74363","HierDyj8sqzfyt","sub02","02","2","feedback","test","null","","","na","","6","",""
"1085.5","75451","HierDyj8sqzfyt","sub02","02","2","rl","test","74","img/o_t_diag.png","6","74","color,shape,pattern","7","1",""
"null","76454","HierDyj8sqzfyt","sub02","02","2","feedback","test","null","","","na","","7","",""
"1318.1000000089407","77775","HierDyj8sqzfyt","sub02","02","2","rl","test","68","img/o_d_check.png","7","75","color,shape,pattern","8","0",""
"null","78782","HierDyj8sqzfyt","sub02","02","2","feedback","test","null","","","na","","8","",""
"924.0999999940395","79708","HierDyj8sqzfyt","sub02","02","2","rl","test","65","img/o_d_check.png","7","75","color,shape,pattern","9","0",""
"null","80715","HierDyj8sqzfyt","sub02","02","2","feedback","test","null","","","na","","9","",""
"696","81413","HierDyj8sqzfyt","sub02","02","2","rl","test","76","img/o_d_diag.png","8","76","color,shape,pattern","10","1",""
"null","82417","HierDyj8sqzfyt","sub02","02","2","feedback","test","null","","","na","","10","",""
"770.6000000089407","83189","HierDyj8sqzfyt","sub02","02","2","rl","test","74","img/o_t_check.png","5","72","color,shape,pattern","11","0",""
"null","84196","HierDyj8sqzfyt","sub02","02","2","feedback","test","null","","","na","","11","",""
"977.5","85176","HierDyj8sqzfyt","sub02","02","2","rl","test","70","img/p_d_diag.png","4","70","color,shape,pattern","12","1",""
"null","86183","HierDyj8sqzfyt","sub02","02","2","feedback","test","null","","","na","","12","",""
"878.9000000059605","87063","HierDyj8sqzfyt","sub02","02","2","rl","test","68","img/p_d_check.png","3","68","color,shape,pattern","13","1",""
"null","88070","HierDyj8sqzfyt","sub02","02","2","feedback","test","null","","","na","","13","",""
"711.0999999940395","88783","HierDyj8sqzfyt","sub02","02","2","rl","test","76","img/o_d_diag.png","8","76","color,shape,pattern","14","1",""
"null","89791","HierDyj8sqzfyt","sub02","02","2","feedback","test","null","","","na","","14","",""
"1560.5","91353","HierDyj8sqzfyt","sub02","02","2","rl","test","83","img/p_t_check.png","1","65","color,shape,pattern","15","0",""
"null","92358","HierDyj8sqzfyt","sub02","02","2","feedback","test","null","","","na","","15","",""
"1948.4000000059605","94308","HierDyj8sqzfyt","sub02","02","2","rl","test","68","img/p_d_check.png","3","68","color,shape,pattern","16","1",""
"null","95315","HierDyj8sqzfyt","sub02","02","2","feedback","test","null","","","na","","16","",""
"1297","96614","HierDyj8sqzfyt","sub02","02","2","rl","test","65","img/p_t_check.png","1","65","color,shape,pattern","17","1",""
"null","97617","HierDyj8sqzfyt","sub02","02","2","feedback","test","null","","","na","","17","",""
"1796","99415","HierDyj8sqzfyt","sub02","02","2","rl","test","75","img/o_d_check.png","7","75","color,shape,pattern","18","1",""
"null","100421","HierDyj8sqzfyt","sub02","02","2","feedback","test","null","","","na","","18","",""
"1326.3999999910593","101750","HierDyj8sqzfyt","sub02","02","2","rl","test","83","img/p_t_diag.png","2","83","color,shape,pattern","19","1",""
"null","102753","HierDyj8sqzfyt","sub02","02","2","feedback","test","null","","","na","","19","",""
"844.7999999970198","103600","HierDyj8sqzfyt","sub02","02","2","rl","test","83","img/p_t_diag.png","2","83","color,shape,pattern","20","1",""
"null","104607","HierDyj8sqzfyt","sub02","02","2","feedback","test","null","","","na","","20","",""
"1142","105751","HierDyj8sqzfyt","sub02","02","2","rl","test","74","img/o_t_diag.png","6","74","color,shape,pattern","21","1",""
"null","106758","HierDyj8sqzfyt","sub02","02","2","feedback","test","null","","","na","","21","",""
"905.7000000029802","107666","HierDyj8sqzfyt","sub02","02","2","rl","test","76","img/o_d_diag.png","8","76","color,shape,pattern","22","1",""
"null","108671","HierDyj8sqzfyt","sub02","02","2","feedback","test","null","","","na","","22","",""
"1631.0999999940395","110304","HierDyj8sqzfyt","sub02","02","2","rl","test","75","img/o_d_check.png","7","75","color,shape,pattern","23","1",""
"null","111307","HierDyj8sqzfyt","sub02","02","2","feedback","test","null","","","na","","23","",""
"1928.1000000089407","113237","HierDyj8sqzfyt","sub02","02","2","rl","test","72","img/o_t_check.png","5","72","color,shape,pattern","24","1",""
"null","114244","HierDyj8sqzfyt","sub02","02","2","feedback","test","null","","","na","","24","",""
"494.70000000298023","114740","HierDyj8sqzfyt","sub02","02","2","rl","test","74","img/o_t_diag.png","6","74","color,shape,pattern","25","1",""
"null","115748","HierDyj8sqzfyt","sub02","02","2","feedback","test","null","","","na","","25","",""
"925.8999999910593","116676","HierDyj8sqzfyt","sub02","02","2","rl","test","70","img/p_d_diag.png","4","70","color,shape,pattern","26","1",""
"null","117678","HierDyj8sqzfyt","sub02","02","2","feedback","test","null","","","na","","26","",""
"1372.7000000029802","119052","HierDyj8sqzfyt","sub02","02","2","rl","test","83","img/p_t_diag.png","2","83","color,shape,pattern","27","1",""
"null","120060","HierDyj8sqzfyt","sub02","02","2","feedback","test","null","","","na","","27","",""
"608.0999999940395","120669","HierDyj8sqzfyt","sub02","02","2","rl","test","70","img/p_d_diag.png","4","70","color,shape,pattern","28","1",""
"null","121673","HierDyj8sqzfyt","sub02","02","2","feedback","test","null","","","na","","28","",""
"623.7999999970198","122298","HierDyj8sqzfyt","sub02","02","2","rl","test","68","img/p_d_check.png","3","68","color,shape,pattern","29","1",""
"null","123302","HierDyj8sqzfyt","sub02","02","2","feedback","test","null","","","na","","29","",""
"1730.0999999940395","125034","HierDyj8sqzfyt","sub02","02","2","rl","test","72","img/o_t_check.png","5","72","color,shape,pattern","30","1",""
"null","126041","HierDyj8sqzfyt","sub02","02","2","feedback","test","null","","","na","","30","",""
"579.4000000059605","126623","HierDyj8sqzfyt","sub02","02","2","rl","test","76","img/o_d_diag.png","8","76","color,shape,pattern","31","1",""
"null","127629","HierDyj8sqzfyt","sub02","02","2","feedback","test","null","","","na","","31","",""
"1386","129017","HierDyj8sqzfyt","sub02","02","2","rl","test","83","img/p_t_check.png","1","65","color,shape,pattern","32","0",""
"null","130021","HierDyj8sqzfyt","sub02","02","2","feedback","test","null","","","na","","32","",""
"681","130704","HierDyj8sqzfyt","sub02","02","2","rl","test","70","img/p_d_diag.png","4","70","color,shape,pattern","33","1",""
"null","131711","HierDyj8sqzfyt","sub02","02","2","feedback","test","null","","","na","","33","",""
"1592.7999999970198","133305","HierDyj8sqzfyt","sub02","02","2","rl","test","72","img/o_t_check.png","5","72","color,shape,pattern","34","1",""
"null","134312","HierDyj8sqzfyt","sub02","02","2","feedback","test","null","","","na","","34","",""
"1983.5","136298","HierDyj8sqzfyt","sub02","02","2","rl","test","83","img/p_t_diag.png","2","83","color,shape,pattern","35","1",""
"null","137304","HierDyj8sqzfyt","sub02","02","2","feedback","test","null","","","na","","35","",""
"791.1000000089407","138097","HierDyj8sqzfyt","sub02","02","2","rl","test","68","img/p_d_check.png","3","68","color,shape,pattern","36","1",""
"null","139104","HierDyj8sqzfyt","sub02","02","2","feedback","test","null","","","na","","36","",""
"1201.7999999970198","140307","HierDyj8sqzfyt","sub02","02","2","rl","test","75","img/o_d_check.png","7","75","color,shape,pattern","37","1",""
"null","141314","HierDyj8sqzfyt","sub02","02","2","feedback","test","null","","","na","","37","",""
"1742.7000000029802","143059","HierDyj8sqzfyt","sub02","02","2","rl","test","83","img/p_t_diag.png","2","83","color,shape,pattern","38","1",""
"null","144066","HierDyj8sqzfyt","sub02","02","2","feedback","test","null","","","na","","38","",""
"1709","145777","HierDyj8sqzfyt","sub02","02","2","rl","test","75","img/o_d_check.png","7","75","color,shape,pattern","39","1",""
"null","146784","HierDyj8sqzfyt","sub02","02","2","feedback","test","null","","","na","","39","",""
"1115.3999999910593","147901","HierDyj8sqzfyt","sub02","02","2","rl","test","74","img/o_t_diag.png","6","74","color,shape,pattern","40","1",""
"null","148907","HierDyj8sqzfyt","sub02","02","2","feedback","test","null","","","na","","40","",""
"703.7999999970198","149613","HierDyj8sqzfyt","sub02","02","2","rl","test","76","img/o_d_diag.png","8","76","color,shape,pattern","41","1",""
"null","150617","HierDyj8sqzfyt","sub02","02","2","feedback","test","null","","","na","","41","",""
"645.3000000119209","151264","HierDyj8sqzfyt","sub02","02","2","rl","test","76","img/o_d_diag.png","8","76","color,shape,pattern","42","1",""
"null","152271","HierDyj8sqzfyt","sub02","02","2","feedback","test","null","","","na","","42","",""
"1926.2999999970198","154200","HierDyj8sqzfyt","sub02","02","2","rl","test","83","img/p_t_check.png","1","65","color,shape,pattern","43","0",""
"null","155207","HierDyj8sqzfyt","sub02","02","2","feedback","test","null","","","na","","43","",""
"1278.4000000059605","156488","HierDyj8sqzfyt","sub02","02","2","rl","test","74","img/o_t_diag.png","6","74","color,shape,pattern","44","1",""
"null","157495","HierDyj8sqzfyt","sub02","02","2","feedback","test","null","","","na","","44","",""
"1050.5999999940395","158547","HierDyj8sqzfyt","sub02","02","2","rl","test","70","img/p_d_diag.png","4","70","color,shape,pattern","45","1",""
"null","159553","HierDyj8sqzfyt","sub02","02","2","feedback","test","null","","","na","","45","",""
"1893.5","161448","HierDyj8sqzfyt","sub02","02","2","rl","test","65","img/p_t_check.png","1","65","color,shape,pattern","46","1",""
"null","162455","HierDyj8sqzfyt","sub02","02","2","feedback","test","null","","","na","","46","",""
"1755.5","164212","HierDyj8sqzfyt","sub02","02","2","rl","test","68","img/p_d_check.png","3","68","color,shape,pattern","47","1",""
"null","165216","HierDyj8sqzfyt","sub02","02","2","feedback","test","null","","","na","","47","",""
"1087.5","166305","HierDyj8sqzfyt","sub02","02","2","rl","test","72","img/o_t_check.png","5","72","color,shape,pattern","48","1",""
"null","167313","HierDyj8sqzfyt","sub02","02","2","feedback","test","null","","","na","","48","",""
"1112.5","168427","HierDyj8sqzfyt","sub02","02","2","rl","test","72","img/o_d_check.png","7","75","color,shape,pattern","49","0",""
"null","169430","HierDyj8sqzfyt","sub02","02","2","feedback","test","null","","","na","","49","",""
"717.7999999970198","170150","HierDyj8sqzfyt","sub02","02","2","rl","test","72","img/o_t_check.png","5","72","color,shape,pattern","50","1",""
"null","171153","HierDyj8sqzfyt","sub02","02","2","feedback","test","null","","","na","","50","",""
"729.3000000119209","171884","HierDyj8sqzfyt","sub02","02","2","rl","test","70","img/p_d_diag.png","4","70","color,shape,pattern","51","1",""
"null","172889","HierDyj8sqzfyt","sub02","02","2","feedback","test","null","","","na","","51","",""
"1503.5","174394","HierDyj8sqzfyt","sub02","02","2","rl","test","83","img/o_t_diag.png","6","74","color,shape,pattern","52","0",""
"null","175398","HierDyj8sqzfyt","sub02","02","2","feedback","test","null","","","na","","52","",""
"1200.2000000029802","176600","HierDyj8sqzfyt","sub02","02","2","rl","test","74","img/p_t_diag.png","2","83","color,shape,pattern","53","0",""
"null","177608","HierDyj8sqzfyt","sub02","02","2","feedback","test","null","","","na","","53","",""
"1344.2000000029802","178954","HierDyj8sqzfyt","sub02","02","2","rl","test","68","img/p_d_check.png","3","68","color,shape,pattern","54","1",""
"null","179957","HierDyj8sqzfyt","sub02","02","2","feedback","test","null","","","na","","54","",""
"1532.9000000059605","181491","HierDyj8sqzfyt","sub02","02","2","rl","test","65","img/p_t_check.png","1","65","color,shape,pattern","55","1",""
"null","182498","HierDyj8sqzfyt","sub02","02","2","feedback","test","null","","","na","","55","",""
"814.4000000059605","183314","HierDyj8sqzfyt","sub02","02","2","rl","test","70","img/p_d_diag.png","4","70","color,shape,pattern","56","1",""
"null","184321","HierDyj8sqzfyt","sub02","02","2","feedback","test","null","","","na","","56","",""
"1063.9000000059605","185387","HierDyj8sqzfyt","sub02","02","2","rl","test","76","img/o_d_diag.png","8","76","color,shape,pattern","57","1",""
"null","186391","HierDyj8sqzfyt","sub02","02","2","feedback","test","null","","","na","","57","",""
"577","186970","HierDyj8sqzfyt","sub02","02","2","rl","test","76","img/o_d_diag.png","8","76","color,shape,pattern","58","1",""
"null","187977","HierDyj8sqzfyt","sub02","02","2","feedback","test","null","","","na","","58","",""
"1731.5999999940395","189710","HierDyj8sqzfyt","sub02","02","2","rl","test","68","img/p_d_check.png","3","68","color,shape,pattern","59","1",""
"null","190714","HierDyj8sqzfyt","sub02","02","2","feedback","test","null","","","na","","59","",""
"1483.6000000089407","192200","HierDyj8sqzfyt","sub02","02","2","rl","test","75","img/o_t_diag.png","6","74","color,shape,pattern","60","0",""
"null","193202","HierDyj8sqzfyt","sub02","02","2","feedback","test","null","","","na","","60","",""
"840.5","194044","HierDyj8sqzfyt","sub02","02","2","rl","test","75","img/o_d_check.png","7","75","color,shape,pattern","61","1",""
"null","195051","HierDyj8sqzfyt","sub02","02","2","feedback","test","null","","","na","","61","",""
"1934.0999999940395","196988","HierDyj8sqzfyt","sub02","02","2","rl","test","72","img/o_t_check.png","5","72","color,shape,pattern","62","1",""
"null","197993","HierDyj8sqzfyt","sub02","02","2","feedback","test","null","","","na","","62","",""
"1270.0999999940395","199265","HierDyj8sqzfyt","sub02","02","2","rl","test","83","img/p_t_diag.png","2","83","color,shape,pattern","63","1",""
"null","200271","HierDyj8sqzfyt","sub02","02","2","feedback","test","null","","","na","","63","",""
"921.6000000089407","201196","HierDyj8sqzfyt","sub02","02","2","rl","test","65","img/p_t_check.png","1","65","color,shape,pattern","64","1",""
"null","202198","HierDyj8sqzfyt","sub02","02","2","feedback","test","null","","","na","","64","",""
"804.3000000119209","203004","HierDyj8sqzfyt","sub02","02","2","rl","test","83","img/p_t_diag.png","2","83","color,shape,pattern","65","1",""
"null","204010","HierDyj8sqzfyt","sub02","02","2","feedback","test","null","","","na","","65","",""
"1430.5","205443","HierDyj8sqzfyt","sub02","02","2","rl","test","68","img/p_d_check.png","3","68","color,shape,pattern","66","1",""
"null","206449","HierDyj8sqzfyt","sub02","02","2","feedback","test","null","","","na","","66","",""
"1304.9000000059605","207756","HierDyj8sqzfyt","sub02","02","2","rl","test","75","img/o_d_check.png","7","75","color,shape,pattern","67","1",""
"null","208762","HierDyj8sqzfyt","sub02","02","2","feedback","test","null","","","na","","67","",""
"1269.7999999970198","210034","HierDyj8sqzfyt","sub02","02","2","rl","test","65","img/p_t_check.png","1","65","color,shape,pattern","68","1",""
"null","211040","HierDyj8sqzfyt","sub02","02","2","feedback","test","null","","","na","","68","",""
"1038.1000000089407","212079","HierDyj8sqzfyt","sub02","02","2","rl","test","76","img/p_d_diag.png","4","70","color,shape,pattern","69","0",""
"null","213085","HierDyj8sqzfyt","sub02","02","2","feedback","test","null","","","na","","69","",""
"null","215592","HierDyj8sqzfyt","sub02","02","2","rl","test","null","img/o_d_check.png","7","75","color,shape,pattern","70","0",""
"null","216598","HierDyj8sqzfyt","sub02","02","2","feedback","test","null","","","na","","70","",""
"1857.1000000089407","218457","HierDyj8sqzfyt","sub02","02","2","rl","test","68","img/o_t_diag.png","6","74","color,shape,pattern","71","0",""
"null","219463","HierDyj8sqzfyt","sub02","02","2","feedback","test","null","","","na","","71","",""
"760.2999999970198","220225","HierDyj8sqzfyt","sub02","02","2","rl","test","70","img/o_d_diag.png","8","76","color,shape,pattern","72","0",""
"null","221231","HierDyj8sqzfyt","sub02","02","2","feedback","test","null","","","na","","72","",""
"951","222183","HierDyj8sqzfyt","sub02","02","2","rl","test","72","img/o_t_check.png","5","72","color,shape,pattern","73","1",""
"null","223186","HierDyj8sqzfyt","sub02","02","2","feedback","test","null","","","na","","73","",""
"1106.7999999970198","224295","HierDyj8sqzfyt","sub02","02","2","rl","test","72","img/o_t_check.png","5","72","color,shape,pattern","74","1",""
"null","225298","HierDyj8sqzfyt","sub02","02","2","feedback","test","null","","","na","","74","",""
"1342","226641","HierDyj8sqzfyt","sub02","02","2","rl","test","65","img/p_t_check.png","1","65","color,shape,pattern","75","1",""
"null","227648","HierDyj8sqzfyt","sub02","02","2","feedback","test","null","","","na","","75","",""
"2214.5999999940395","229864","HierDyj8sqzfyt","sub02","02","2","rl","test","83","img/o_t_diag.png","6","74","color,shape,pattern","76","0",""
"null","230870","HierDyj8sqzfyt","sub02","02","2","feedback","test","null","","","na","","76","",""
"1809.2999999970198","232681","HierDyj8sqzfyt","sub02","02","2","rl","test","70","img/p_d_diag.png","4","70","color,shape,pattern","77","1",""
"null","233688","HierDyj8sqzfyt","sub02","02","2","feedback","test","null","","","na","","77","",""
"1256.5","234946","HierDyj8sqzfyt","sub02","02","2","rl","test","83","img/p_t_diag.png","2","83","color,shape,pattern","78","1",""
"null","235951","HierDyj8sqzfyt","sub02","02","2","feedback","test","null","","","na","","78","",""
"1779.5","237731","HierDyj8sqzfyt","sub02","02","2","rl","test","75","img/p_d_check.png","3","68","color,shape,pattern","79","0",""
"null","238734","HierDyj8sqzfyt","sub02","02","2","feedback","test","null","","","na","","79","",""
"1205.6000000089407","239941","HierDyj8sqzfyt","sub02","02","2","rl","test","74","img/o_t_diag.png","6","74","color,shape,pattern","80","1",""
"null","240948","HierDyj8sqzfyt","sub02","02","2","feedback","test","null","","","na","","80","",""
"1854.2999999970198","242803","HierDyj8sqzfyt","sub02","02","2","rl","test","68","img/p_d_check.png","3","68","color,shape,pattern","81","1",""
"null","243809","HierDyj8sqzfyt","sub02","02","2","feedback","test","null","","","na","","81","",""
"664.6000000089407","244475","HierDyj8sqzfyt","sub02","02","2","rl","test","76","img/o_d_diag.png","8","76","color,shape,pattern","82","1",""
"null","245479","HierDyj8sqzfyt","sub02","02","2","feedback","test","null","","","na","","82","",""
"542.3999999910593","246023","HierDyj8sqzfyt","sub02","02","2","rl","test","76","img/o_d_diag.png","8","76","color,shape,pattern","83","1",""
"null","247025","HierDyj8sqzfyt","sub02","02","2","feedback","test","null","","","na","","83","",""
"2161.699999988079","249188","HierDyj8sqzfyt","sub02","02","2","rl","test","83","img/p_t_check.png","1","65","color,shape,pattern","84","0",""
"null","250195","HierDyj8sqzfyt","sub02","02","2","feedback","test","null","","","na","","84","",""
"1366.2000000029802","251562","HierDyj8sqzfyt","sub02","02","2","rl","test","75","img/o_d_check.png","7","75","color,shape,pattern","85","1",""
"null","252568","HierDyj8sqzfyt","sub02","02","2","feedback","test","null","","","na","","85","",""
"1798.800000011921","254368","HierDyj8sqzfyt","sub02","02","2","rl","test","68","img/o_t_check.png","5","72","color,shape,pattern","86","0",""
"null","255371","HierDyj8sqzfyt","sub02","02","2","feedback","test","null","","","na","","86","",""
"1058.7999999970198","256431","HierDyj8sqzfyt","sub02","02","2","rl","test","68","img/p_d_check.png","3","68","color,shape,pattern","87","1",""
"null","257433","HierDyj8sqzfyt","sub02","02","2","feedback","test","null","","","na","","87","",""
"1492.5999999940395","258927","HierDyj8sqzfyt","sub02","02","2","rl","test","72","img/o_t_check.png","5","72","color,shape,pattern","88","1",""
"null","259928","HierDyj8sqzfyt","sub02","02","2","feedback","test","null","","","na","","88","",""
"883.4000000059605","260813","HierDyj8sqzfyt","sub02","02","2","rl","test","70","img/p_d_diag.png","4","70","color,shape,pattern","89","1",""
"null","261816","HierDyj8sqzfyt","sub02","02","2","feedback","test","null","","","na","","89","",""
"1952","263769","HierDyj8sqzfyt","sub02","02","2","rl","test","83","img/o_t_diag.png","6","74","color,shape,pattern","90","0",""
"null","264773","HierDyj8sqzfyt","sub02","02","2","feedback","test","null","","","na","","90","",""
"805.5","265580","HierDyj8sqzfyt","sub02","02","2","rl","test","74","img/p_t_diag.png","2","83","color,shape,pattern","91","0",""
"null","266587","HierDyj8sqzfyt","sub02","02","2","feedback","test","null","","","na","","91","",""
"715.5","267304","HierDyj8sqzfyt","sub02","02","2","rl","test","70","img/p_d_diag.png","4","70","color,shape,pattern","92","1",""
"null","268307","HierDyj8sqzfyt","sub02","02","2","feedback","test","null","","","na","","92","",""
"1309.8999999910593","269618","HierDyj8sqzfyt","sub02","02","2","rl","test","65","img/p_t_check.png","1","65","color,shape,pattern","93","1",""
"null","270621","HierDyj8sqzfyt","sub02","02","2","feedback","test","null","","","na","","93","",""
"1770.3999999910593","272393","HierDyj8sqzfyt","sub02","02","2","rl","test","83","img/p_t_diag.png","2","83","color,shape,pattern","94","1",""
"null","273398","HierDyj8sqzfyt","sub02","02","2","feedback","test","null","","","na","","94","",""
"649.7999999970198","274049","HierDyj8sqzfyt","sub02","02","2","rl","test","76","img/o_d_diag.png","8","76","color,shape,pattern","95","1",""
"null","275057","HierDyj8sqzfyt","sub02","02","2","feedback","test","null","","","na","","95","",""
"2170.5999999940395","277228","HierDyj8sqzfyt","sub02","02","2","rl","test","75","img/o_d_check.png","7","75","color,shape,pattern","96","1",""
"null","278232","HierDyj8sqzfyt","sub02","02","2","feedback","test","null","","","na","","96","",""
"526.5","278760","HierDyj8sqzfyt","sub02","02","2","rl","test","75","img/o_d_check.png","7","75","color,shape,pattern","97","1",""
"null","279767","HierDyj8sqzfyt","sub02","02","2","feedback","test","null","","","na","","97","",""
"1501.3999999910593","281269","HierDyj8sqzfyt","sub02","02","2","rl","test","83","img/p_t_diag.png","2","83","color,shape,pattern","98","1",""
"null","282272","HierDyj8sqzfyt","sub02","02","2","feedback","test","null","","","na","","98","",""
"1119.2000000029802","283394","HierDyj8sqzfyt","sub02","02","2","rl","test","65","img/p_t_check.png","1","65","color,shape,pattern","99","1",""
"null","284398","HierDyj8sqzfyt","sub02","02","2","feedback","test","null","","","na","","99","",""
"1885.5999999940395","286285","HierDyj8sqzfyt","sub02","02","2","rl","test","76","img/o_d_diag.png","8","76","color,shape,pattern","100","1",""
"null","287289","HierDyj8sqzfyt","sub02","02","2","feedback","test","null","","","na","","100","",""
"1741.6000000089407","289032","HierDyj8sqzfyt","sub02","02","2","rl","test","68","img/p_d_check.png","3","68","color,shape,pattern","101","1",""
"null","290036","HierDyj8sqzfyt","sub02","02","2","feedback","test","null","","","na","","101","",""
"2290","292328","HierDyj8sqzfyt","sub02","02","2","rl","test","72","img/o_t_check.png","5","72","color,shape,pattern","102","1",""
"null","293333","HierDyj8sqzfyt","sub02","02","2","feedback","test","null","","","na","","102","",""
"1165.1000000089407","294501","HierDyj8sqzfyt","sub02","02","2","rl","test","70","img/p_d_diag.png","4","70","color,shape,pattern","103","1",""
"null","295505","HierDyj8sqzfyt","sub02","02","2","feedback","test","null","","","na","","103","",""
"2445.5999999940395","297952","HierDyj8sqzfyt","sub02","02","2","rl","test","75","img/o_t_diag.png","6","74","color,shape,pattern","104","0",""
"null","298956","HierDyj8sqzfyt","sub02","02","2","feedback","test","null","","","na","","104","",""
"1293.2000000029802","300252","HierDyj8sqzfyt","sub02","02","2","rl","test","83","img/p_t_diag.png","2","83","color,shape,pattern","105","1",""
"null","301259","HierDyj8sqzfyt","sub02","02","2","feedback","test","null","","","na","","105","",""
"1458","302719","HierDyj8sqzfyt","sub02","02","2","rl","test","75","img/o_d_check.png","7","75","color,shape,pattern","106","1",""
"null","303721","HierDyj8sqzfyt","sub02","02","2","feedback","test","null","","","na","","106","",""
"null","306223","HierDyj8sqzfyt","sub02","02","2","rl","test","null","img/o_t_check.png","5","72","color,shape,pattern","107","0",""
"null","307230","HierDyj8sqzfyt","sub02","02","2","feedback","test","null","","","na","","107","",""
"592.7000000029802","307825","HierDyj8sqzfyt","sub02","02","2","rl","test","76","img/o_d_diag.png","8","76","color,shape,pattern","108","1",""
"null","308832","HierDyj8sqzfyt","sub02","02","2","feedback","test","null","","","na","","108","",""
"2302.699999988079","311137","HierDyj8sqzfyt","sub02","02","2","rl","test","68","img/p_d_check.png","3","68","color,shape,pattern","109","1",""
"null","312140","HierDyj8sqzfyt","sub02","02","2","feedback","test","null","","","na","","109","",""
"765.5","312908","HierDyj8sqzfyt","sub02","02","2","rl","test","76","img/p_d_diag.png","4","70","color,shape,pattern","110","0",""
"null","313915","HierDyj8sqzfyt","sub02","02","2","feedback","test","null","","","na","","110","",""
"1787.5","315705","HierDyj8sqzfyt","sub02","02","2","rl","test","74","img/o_t_diag.png","6","74","color,shape,pattern","111","1",""
"null","316710","HierDyj8sqzfyt","sub02","02","2","feedback","test","null","","","na","","111","",""
"1188.4000000059605","317900","HierDyj8sqzfyt","sub02","02","2","rl","test","65","img/p_t_check.png","1","65","color,shape,pattern","112","1",""
"null","318907","HierDyj8sqzfyt","sub02","02","2","feedback","test","null","","","na","","112","",""
"1643.5","320552","HierDyj8sqzfyt","sub02","02","2","rl","test","68","img/p_d_check.png","3","68","color,shape,pattern","113","1",""
"null","321559","HierDyj8sqzfyt","sub02","02","2","feedback","test","null","","","na","","113","",""
"1812.5","323378","HierDyj8sqzfyt","sub02","02","2","rl","test","83","img/o_t_diag.png","6","74","color,shape,pattern","114","0",""
"null","324383","HierDyj8sqzfyt","sub02","02","2","feedback","test","null","","","na","","114","",""
"915.7000000029802","325300","HierDyj8sqzfyt","sub02","02","2","rl","test","83","img/p_t_diag.png","2","83","color,shape,pattern","115","1",""
"null","326302","HierDyj8sqzfyt","sub02","02","2","feedback","test","null","","","na","","115","",""
"854.5","327158","HierDyj8sqzfyt","sub02","02","2","rl","test","70","img/p_d_diag.png","4","70","color,shape,pattern","116","1",""
"null","328163","HierDyj8sqzfyt","sub02","02","2","feedback","test","null","","","na","","116","",""
"1536","329701","HierDyj8sqzfyt","sub02","02","2","rl","test","65","img/p_t_check.png","1","65","color,shape,pattern","117","1",""
"null","330707","HierDyj8sqzfyt","sub02","02","2","feedback","test","null","","","na","","117","",""
"2298.4000000059605","333007","HierDyj8sqzfyt","sub02","02","2","rl","test","70","img/p_d_diag.png","4","70","color,shape,pattern","118","1",""
"null","334014","HierDyj8sqzfyt","sub02","02","2","feedback","test","null","","","na","","118","",""
"565","334581","HierDyj8sqzfyt","sub02","02","2","rl","test","76","img/o_d_diag.png","8","76","color,shape,pattern","119","1",""
"null","335588","HierDyj8sqzfyt","sub02","02","2","feedback","test","null","","","na","","119","",""
"1418.1000000089407","337008","HierDyj8sqzfyt","sub02","02","2","rl","test","72","img/o_t_check.png","5","72","color,shape,pattern","120","1",""
"null","338013","HierDyj8sqzfyt","sub02","02","2","feedback","test","null","","","na","","120","",""
"1668.2999999970198","339683","HierDyj8sqzfyt","sub02","02","2","rl","test","75","img/o_d_check.png","7","75","color,shape,pattern","121","1",""
"null","340691","HierDyj8sqzfyt","sub02","02","2","feedback","test","null","","","na","","121","",""
"571.1000000089407","341264","HierDyj8sqzfyt","sub02","02","2","rl","test","75","img/o_d_check.png","7","75","color,shape,pattern","122","1",""
"null","342266","HierDyj8sqzfyt","sub02","02","2","feedback","test","null","","","na","","122","",""
"2264.6000000089407","344532","HierDyj8sqzfyt","sub02","02","2","rl","test","74","img/o_t_diag.png","6","74","color,shape,pattern","123","1",""
"null","345540","HierDyj8sqzfyt","sub02","02","2","feedback","test","null","","","na","","123","",""
"686.6999999880791","346229","HierDyj8sqzfyt","sub02","02","2","rl","test","76","img/o_d_diag.png","8","76","color,shape,pattern","124","1",""
"null","347233","HierDyj8sqzfyt","sub02","02","2","feedback","test","null","","","na","","124","",""
"705.7999999970198","347941","HierDyj8sqzfyt","sub02","02","2","rl","test","65","img/p_t_check.png","1","65","color,shape,pattern","125","1",""
"null","348947","HierDyj8sqzfyt","sub02","02","2","feedback","test","null","","","na","","125","",""
"1886.5","350835","HierDyj8sqzfyt","sub02","02","2","rl","test","72","img/o_t_check.png","5","72","color,shape,pattern","126","1",""
"null","351837","HierDyj8sqzfyt","sub02","02","2","feedback","test","null","","","na","","126","",""
"1451.2000000029802","353291","HierDyj8sqzfyt","sub02","02","2","rl","test","83","img/p_t_diag.png","2","83","color,shape,pattern","127","1",""
"null","354293","HierDyj8sqzfyt","sub02","02","2","feedback","test","null","","","na","","127","",""
"1122","355416","HierDyj8sqzfyt","sub02","02","2","rl","test","68","img/p_d_check.png","3","68","color,shape,pattern","128","1",""
"null","356421","HierDyj8sqzfyt","sub02","02","2","feedback","test","null","","","na","","128","",""
"806.9000000059605","357230","HierDyj8sqzfyt","sub02","02","2","rl","test","65","img/p_t_check.png","1","65","color,shape,pattern","129","1",""
"null","358233","HierDyj8sqzfyt","sub02","02","2","feedback","test","null","","","na","","129","",""
"1180.0999999940395","359415","HierDyj8sqzfyt","sub02","02","2","rl","test","68","img/p_d_check.png","3","68","color,shape,pattern","130","1",""
"null","360421","HierDyj8sqzfyt","sub02","02","2","feedback","test","null","","","na","","130","",""
"1028.5","361451","HierDyj8sqzfyt","sub02","02","2","rl","test","83","img/p_t_diag.png","2","83","color,shape,pattern","131","1",""
"null","362458","HierDyj8sqzfyt","sub02","02","2","feedback","test","null","","","na","","131","",""
"1792.0999999940395","364252","HierDyj8sqzfyt","sub02","02","2","rl","test","70","img/p_d_diag.png","4","70","color,shape,pattern","132","1",""
"null","365259","HierDyj8sqzfyt","sub02","02","2","feedback","test","null","","","na","","132","",""
"1458.4000000059605","366720","HierDyj8sqzfyt","sub02","02","2","rl","test","74","img/o_t_diag.png","6","74","color,shape,pattern","133","1",""
"null","367724","HierDyj8sqzfyt","sub02","02","2","feedback","test","null","","","na","","133","",""
"952.7000000029802","368679","HierDyj8sqzfyt","sub02","02","2","rl","test","75","img/o_d_check.png","7","75","color,shape,pattern","134","1",""
"null","369686","HierDyj8sqzfyt","sub02","02","2","feedback","test","null","","","na","","134","",""
"894.6000000089407","370583","HierDyj8sqzfyt","sub02","02","2","rl","test","70","img/p_d_diag.png","4","70","color,shape,pattern","135","1",""
"null","371590","HierDyj8sqzfyt","sub02","02","2","feedback","test","null","","","na","","135","",""
"1567.7000000029802","373160","HierDyj8sqzfyt","sub02","02","2","rl","test","72","img/o_t_check.png","5","72","color,shape,pattern","136","1",""
"null","374167","HierDyj8sqzfyt","sub02","02","2","feedback","test","null","","","na","","136","",""
"615","374784","HierDyj8sqzfyt","sub02","02","2","rl","test","72","img/o_t_check.png","5","72","color,shape,pattern","137","1",""
"null","375789","HierDyj8sqzfyt","sub02","02","2","feedback","test","null","","","na","","137","",""
"1083","376874","HierDyj8sqzfyt","sub02","02","2","rl","test","76","img/o_d_diag.png","8","76","color,shape,pattern","138","1",""
"null","377880","HierDyj8sqzfyt","sub02","02","2","feedback","test","null","","","na","","138","",""
"null","380388","HierDyj8sqzfyt","sub02","02","2","rl","test","null","img/o_t_diag.png","6","74","color,shape,pattern","139","0",""
"null","381393","HierDyj8sqzfyt","sub02","02","2","feedback","test","null","","","na","","139","",""
"1129.7999999970198","382524","HierDyj8sqzfyt","sub02","02","2","rl","test","65","img/p_t_check.png","1","65","color,shape,pattern","140","1",""
"null","383528","HierDyj8sqzfyt","sub02","02","2","feedback","test","null","","","na","","140","",""
"718.4000000059605","384250","HierDyj8sqzfyt","sub02","02","2","rl","test","76","img/o_d_diag.png","8","76","color,shape,pattern","141","1",""
"null","385257","HierDyj8sqzfyt","sub02","02","2","feedback","test","null","","","na","","141","",""
"1657.5999999940395","386916","HierDyj8sqzfyt","sub02","02","2","rl","test","68","img/o_d_check.png","7","75","color,shape,pattern","142","0",""
"null","387921","HierDyj8sqzfyt","sub02","02","2","feedback","test","null","","","na","","142","",""
"791.7000000029802","388715","HierDyj8sqzfyt","sub02","02","2","rl","test","68","img/p_d_check.png","3","68","color,shape,pattern","143","1",""
"null","389721","HierDyj8sqzfyt","sub02","02","2","feedback","test","null","","","na","","143","",""
"782.2000000029802","390505","HierDyj8sqzfyt","sub02","02","2","rl","test","70","img/p_d_diag.png","4","70","color,shape,pattern","144","1",""
"null","391512","HierDyj8sqzfyt","sub02","02","2","feedback","test","null","","","na","","144","",""
"1712.7999999970198","393226","HierDyj8sqzfyt","sub02","02","2","rl","test","83","img/p_d_check.png","3","68","color,shape,pattern","145","0",""
"null","394230","HierDyj8sqzfyt","sub02","02","2","feedback","test","null","","","na","","145","",""
"972.7000000029802","395205","HierDyj8sqzfyt","sub02","02","2","rl","test","83","img/p_t_diag.png","2","83","color,shape,pattern","146","1",""
"null","396212","HierDyj8sqzfyt","sub02","02","2","feedback","test","null","","","na","","146","",""
"2265.2000000029802","398479","HierDyj8sqzfyt","sub02","02","2","rl","test","65","img/p_t_check.png","1","65","color,shape,pattern","147","1",""
"null","399487","HierDyj8sqzfyt","sub02","02","2","feedback","test","null","","","na","","147","",""
"1207.2000000029802","400696","HierDyj8sqzfyt","sub02","02","2","rl","test","75","img/o_d_check.png","7","75","color,shape,pattern","148","1",""
"null","401702","HierDyj8sqzfyt","sub02","02","2","feedback","test","null","","","na","","148","",""
"986.5","402691","HierDyj8sqzfyt","sub02","02","2","rl","test","75","img/o_d_check.png","7","75","color,shape,pattern","149","1",""
"null","403698","HierDyj8sqzfyt","sub02","02","2","feedback","test","null","","","na","","149","",""
"2396.9000000059605","406097","HierDyj8sqzfyt","sub02","02","2","rl","test","83","img/p_t_diag.png","2","83","color,shape,pattern","150","1",""
"null","407104","HierDyj8sqzfyt","sub02","02","2","feedback","test","null","","","na","","150","",""
"1034.7000000029802","408141","HierDyj8sqzfyt","sub02","02","2","rl","test","74","img/o_t_diag.png","6","74","color,shape,pattern","151","1",""
"null","409144","HierDyj8sqzfyt","sub02","02","2","feedback","test","null","","","na","","151","",""
"1686","410832","HierDyj8sqzfyt","sub02","02","2","rl","test","65","img/o_t_check.png","5","72","color,shape,pattern","152","0",""
"null","411836","HierDyj8sqzfyt","sub02","02","2","feedback","test","null","","","na","","152","",""
"1482.9000000059605","413321","HierDyj8sqzfyt","sub02","02","2","rl","test","74","img/o_t_diag.png","6","74","color,shape,pattern","153","1",""
"null","414328","HierDyj8sqzfyt","sub02","02","2","feedback","test","null","","","na","","153","",""
"700.6000000089407","415031","HierDyj8sqzfyt","sub02","02","2","rl","test","76","img/o_d_diag.png","8","76","color,shape,pattern","154","1",""
"null","416033","HierDyj8sqzfyt","sub02","02","2","feedback","test","null","","","na","","154","",""
"2123.199999988079","418158","HierDyj8sqzfyt","sub02","02","2","rl","test","68","img/p_d_check.png","3","68","color,shape,pattern","155","1",""
"null","419165","HierDyj8sqzfyt","sub02","02","2","feedback","test","null","","","na","","155","",""
"1696.2999999970198","420864","HierDyj8sqzfyt","sub02","02","2","rl","test","65","img/p_t_check.png","1","65","color,shape,pattern","156","1",""
"null","421871","HierDyj8sqzfyt","sub02","02","2","feedback","test","null","","","na","","156","",""
"956.3999999910593","422829","HierDyj8sqzfyt","sub02","02","2","rl","test","72","img/o_t_check.png","5","72","color,shape,pattern","157","1",""
"null","423833","HierDyj8sqzfyt","sub02","02","2","feedback","test","null","","","na","","157","",""
"641.8000000119209","424477","HierDyj8sqzfyt","sub02","02","2","rl","test","76","img/p_d_diag.png","4","70","color,shape,pattern","158","0",""
"null","425484","HierDyj8sqzfyt","sub02","02","2","feedback","test","null","","","na","","158","",""
"1444.4000000059605","426931","HierDyj8sqzfyt","sub02","02","2","rl","test","65","img/p_t_check.png","1","65","color,shape,pattern","159","1",""
"null","427933","HierDyj8sqzfyt","sub02","02","2","feedback","test","null","","","na","","159","",""
"1477.5","429413","HierDyj8sqzfyt","sub02","02","2","rl","test","75","img/o_d_check.png","7","75","color,shape,pattern","160","1",""
"null","430416","HierDyj8sqzfyt","sub02","02","2","feedback","test","null","","","na","","160","",""
"572.5","430991","HierDyj8sqzfyt","sub02","02","2","rl","test","76","img/o_d_diag.png","8","76","color,shape,pattern","161","1",""
"null","431998","HierDyj8sqzfyt","sub02","02","2","feedback","test","null","","","na","","161","",""
"1199.1000000089407","433199","HierDyj8sqzfyt","sub02","02","2","rl","test","76","img/o_d_diag.png","8","76","color,shape,pattern","162","1",""
"null","434206","HierDyj8sqzfyt","sub02","02","2","feedback","test","null","","","na","","162","",""
"1645.4000000059605","435853","HierDyj8sqzfyt","sub02","02","2","rl","test","68","img/p_d_check.png","3","68","color,shape,pattern","163","1",""
"null","436860","HierDyj8sqzfyt","sub02","02","2","feedback","test","null","","","na","","163","",""
"1358.7999999970198","438221","HierDyj8sqzfyt","sub02","02","2","rl","test","83","img/p_t_diag.png","2","83","color,shape,pattern","164","1",""
"null","439228","HierDyj8sqzfyt","sub02","02","2","feedback","test","null","","","na","","164","",""
"1011.3000000119209","440242","HierDyj8sqzfyt","sub02","02","2","rl","test","74","img/o_t_diag.png","6","74","color,shape,pattern","165","1",""
"null","441246","HierDyj8sqzfyt","sub02","02","2","feedback","test","null","","","na","","165","",""
"1325.5","442574","HierDyj8sqzfyt","sub02","02","2","rl","test","83","img/p_t_diag.png","2","83","color,shape,pattern","166","1",""
"null","443580","HierDyj8sqzfyt","sub02","02","2","feedback","test","null","","","na","","166","",""
"1630.2999999970198","445213","HierDyj8sqzfyt","sub02","02","2","rl","test","70","img/p_d_diag.png","4","70","color,shape,pattern","167","1",""
"null","446216","HierDyj8sqzfyt","sub02","02","2","feedback","test","null","","","na","","167","",""
"null","448721","HierDyj8sqzfyt","sub02","02","2","rl","test","null","img/o_t_check.png","5","72","color,shape,pattern","168","0",""
"null","449727","HierDyj8sqzfyt","sub02","02","2","feedback","test","null","","","na","","168","",""
"993.2000000029802","450722","HierDyj8sqzfyt","sub02","02","2","rl","test","83","img/p_t_diag.png","2","83","color,shape,pattern","169","1",""
"null","451728","HierDyj8sqzfyt","sub02","02","2","feedback","test","null","","","na","","169","",""
"1929.8999999910593","453660","HierDyj8sqzfyt","sub02","02","2","rl","test","70","img/o_d_diag.png","8","76","color,shape,pattern","170","0",""
"null","454668","HierDyj8sqzfyt","sub02","02","2","feedback","test","null","","","na","","170","",""
"768","455438","HierDyj8sqzfyt","sub02","02","2","rl","test","70","img/p_d_diag.png","4","70","color,shape,pattern","171","1",""
"null","456444","HierDyj8sqzfyt","sub02","02","2","feedback","test","null","","","na","","171","",""
"1353.5","457800","HierDyj8sqzfyt","sub02","02","2","rl","test","65","img/p_t_check.png","1","65","color,shape,pattern","172","1",""
"null","458804","HierDyj8sqzfyt","sub02","02","2","feedback","test","null","","","na","","172","",""
"1446.0999999940395","460252","HierDyj8sqzfyt","sub02","02","2","rl","test","72","img/o_t_check.png","5","72","color,shape,pattern","173","1",""
"null","461259","HierDyj8sqzfyt","sub02","02","2","feedback","test","null","","","na","","173","",""
"2493.2000000029802","463754","HierDyj8sqzfyt","sub02","02","2","rl","test","68","img/o_d_check.png","7","75","color,shape,pattern","174","0",""
"null","464761","HierDyj8sqzfyt","sub02","02","2","feedback","test","null","","","na","","174","",""
"1222.5","465986","HierDyj8sqzfyt","sub02","02","2","rl","test","74","img/o_t_diag.png","6","74","color,shape,pattern","175","1",""
"null","466992","HierDyj8sqzfyt","sub02","02","2","feedback","test","null","","","na","","175","",""
"615.8000000119209","467609","HierDyj8sqzfyt","sub02","02","2","rl","test","76","img/o_d_diag.png","8","76","color,shape,pattern","176","1",""
"null","468616","HierDyj8sqzfyt","sub02","02","2","feedback","test","null","","","na","","176","",""
"1556.6000000089407","470175","HierDyj8sqzfyt","sub02","02","2","rl","test","74","img/o_t_diag.png","6","74","color,shape,pattern","177","1",""
"null","471178","HierDyj8sqzfyt","sub02","02","2","feedback","test","null","","","na","","177","",""
"2223.6000000089407","473404","HierDyj8sqzfyt","sub02","02","2","rl","test","68","img/p_d_check.png","3","68","color,shape,pattern","178","1",""
"null","474408","HierDyj8sqzfyt","sub02","02","2","feedback","test","null","","","na","","178","",""
"2252","476662","HierDyj8sqzfyt","sub02","02","2","rl","test","72","img/p_t_check.png","1","65","color,shape,pattern","179","0",""
"null","477669","HierDyj8sqzfyt","sub02","02","2","feedback","test","null","","","na","","179","",""
"1309.3999999910593","478980","HierDyj8sqzfyt","sub02","02","2","rl","test","83","img/p_t_diag.png","2","83","color,shape,pattern","180","1",""
"null","479985","HierDyj8sqzfyt","sub02","02","2","feedback","test","null","","","na","","180","",""
"725.2999999970198","480713","HierDyj8sqzfyt","sub02","02","2","rl","test","83","img/p_t_diag.png","2","83","color,shape,pattern","181","1",""
"null","481715","HierDyj8sqzfyt","sub02","02","2","feedback","test","null","","","na","","181","",""
"2460.3999999910593","484177","HierDyj8sqzfyt","sub02","02","2","rl","test","68","img/p_d_check.png","3","68","color,shape,pattern","182","1",""
"null","485185","HierDyj8sqzfyt","sub02","02","2","feedback","test","null","","","na","","182","",""
"2502.0999999940395","487689","HierDyj8sqzfyt","sub02","02","2","rl","test","72","img/o_t_check.png","5","72","color,shape,pattern","183","1",""
"null","488696","HierDyj8sqzfyt","sub02","02","2","feedback","test","null","","","na","","183","",""
"2155.9000000059605","490854","HierDyj8sqzfyt","sub02","02","2","rl","test","70","img/p_d_diag.png","4","70","color,shape,pattern","184","1",""
"null","491857","HierDyj8sqzfyt","sub02","02","2","feedback","test","null","","","na","","184","",""
"null","494364","HierDyj8sqzfyt","sub02","02","2","rl","test","null","img/p_t_check.png","1","65","color,shape,pattern","185","0",""
"null","495371","HierDyj8sqzfyt","sub02","02","2","feedback","test","null","","","na","","185","",""
"1870.0999999940395","497243","HierDyj8sqzfyt","sub02","02","2","rl","test","75","img/o_d_check.png","7","75","color,shape,pattern","186","1",""
"null","498248","HierDyj8sqzfyt","sub02","02","2","feedback","test","null","","","na","","186","",""
"894","499144","HierDyj8sqzfyt","sub02","02","2","rl","test","68","img/p_d_check.png","3","68","color,shape,pattern","187","1",""
"null","500151","HierDyj8sqzfyt","sub02","02","2","feedback","test","null","","","na","","187","",""
"1404.2000000029802","501557","HierDyj8sqzfyt","sub02","02","2","rl","test","70","img/p_d_diag.png","4","70","color,shape,pattern","188","1",""
"null","502561","HierDyj8sqzfyt","sub02","02","2","feedback","test","null","","","na","","188","",""
"null","505068","HierDyj8sqzfyt","sub02","02","2","rl","test","null","img/o_d_check.png","7","75","color,shape,pattern","189","0",""
"null","506071","HierDyj8sqzfyt","sub02","02","2","feedback","test","null","","","na","","189","",""
"1148.5","507221","HierDyj8sqzfyt","sub02","02","2","rl","test","72","img/o_t_check.png","5","72","color,shape,pattern","190","1",""
"null","508228","HierDyj8sqzfyt","sub02","02","2","feedback","test","null","","","na","","190","",""
"643.7000000029802","508874","HierDyj8sqzfyt","sub02","02","2","rl","test","76","img/o_d_diag.png","8","76","color,shape,pattern","191","1",""
"null","509877","HierDyj8sqzfyt","sub02","02","2","feedback","test","null","","","na","","191","",""
"925.5","510804","HierDyj8sqzfyt","sub02","02","2","rl","test","74","img/o_t_diag.png","6","74","color,shape,pattern","192","1",""
"null","511808","HierDyj8sqzfyt","sub02","02","2","feedback","test","null","","","na","","192","",""
"809","512619","HierDyj8sqzfyt","sub02","02","2","rl","test","65","img/p_t_check.png","1","65","color,shape,pattern","193","1",""
"null","513626","HierDyj8sqzfyt","sub02","02","2","feedback","test","null","","","na","","193","",""
"802.7000000029802","514431","HierDyj8sqzfyt","sub02","02","2","rl","test","83","img/p_t_diag.png","2","83","color,shape,pattern","194","1",""
"null","515434","HierDyj8sqzfyt","sub02","02","2","feedback","test","null","","","na","","194","",""
"906.7999999970198","516343","HierDyj8sqzfyt","sub02","02","2","rl","test","72","img/o_t_check.png","5","72","color,shape,pattern","195","1",""
"null","517350","HierDyj8sqzfyt","sub02","02","2","feedback","test","null","","","na","","195","",""
"920.6999999880791","518273","HierDyj8sqzfyt","sub02","02","2","rl","test","68","img/p_d_check.png","3","68","color,shape,pattern","196","1",""
"null","519279","HierDyj8sqzfyt","sub02","02","2","feedback","test","null","","","na","","196","",""
"816.2000000029802","520098","HierDyj8sqzfyt","sub02","02","2","rl","test","70","img/p_d_diag.png","4","70","color,shape,pattern","197","1",""
"null","521105","HierDyj8sqzfyt","sub02","02","2","feedback","test","null","","","na","","197","",""
"543.0999999940395","521650","HierDyj8sqzfyt","sub02","02","2","rl","test","70","img/p_d_diag.png","4","70","color,shape,pattern","198","1",""
"null","522655","HierDyj8sqzfyt","sub02","02","2","feedback","test","null","","","na","","198","",""
"1271.6000000089407","523929","HierDyj8sqzfyt","sub02","02","2","rl","test","76","img/o_d_diag.png","8","76","color,shape,pattern","199","1",""
"null","524933","HierDyj8sqzfyt","sub02","02","2","feedback","test","null","","","na","","199","",""
"1483.6000000089407","526419","HierDyj8sqzfyt","sub02","02","2","rl","test","75","img/o_d_check.png","7","75","color,shape,pattern","200","1",""
"null","527425","HierDyj8sqzfyt","sub02","02","2","feedback","test","null","","","na","","200","",""
"1227.7000000029802","528655","HierDyj8sqzfyt","sub02","02","2","rl","test","83","img/p_t_diag.png","2","83","color,shape,pattern","201","1",""
"null","529662","HierDyj8sqzfyt","sub02","02","2","feedback","test","null","","","na","","201","",""
"2214.9000000059605","531879","HierDyj8sqzfyt","sub02","02","2","rl","test","74","img/o_t_diag.png","6","74","color,shape,pattern","202","1",""
"null","532886","HierDyj8sqzfyt","sub02","02","2","feedback","test","null","","","na","","202","",""
"961.4000000059605","533849","HierDyj8sqzfyt","sub02","02","2","rl","test","75","img/o_d_check.png","7","75","color,shape,pattern","203","1",""
"null","534856","HierDyj8sqzfyt","sub02","02","2","feedback","test","null","","","na","","203","",""
"905.5","535764","HierDyj8sqzfyt","sub02","02","2","rl","test","74","img/o_t_diag.png","6","74","color,shape,pattern","204","1",""
"null","536771","HierDyj8sqzfyt","sub02","02","2","feedback","test","null","","","na","","204","",""
"779.5999999940395","537552","HierDyj8sqzfyt","sub02","02","2","rl","test","65","img/p_t_check.png","1","65","color,shape,pattern","205","1",""
"null","538559","HierDyj8sqzfyt","sub02","02","2","feedback","test","null","","","na","","205","",""
"612.4000000059605","539174","HierDyj8sqzfyt","sub02","02","2","rl","test","76","img/o_d_diag.png","8","76","color,shape,pattern","206","1",""
"null","540177","HierDyj8sqzfyt","sub02","02","2","feedback","test","null","","","na","","206","",""
"827.2999999970198","541007","HierDyj8sqzfyt","sub02","02","2","rl","test","72","img/o_t_check.png","5","72","color,shape,pattern","207","1",""
"null","542011","HierDyj8sqzfyt","sub02","02","2","feedback","test","null","","","na","","207","",""
"600.2000000029802","542613","HierDyj8sqzfyt","sub02","02","2","rl","test","72","img/o_t_check.png","5","72","color,shape,pattern","208","1",""
"null","543616","HierDyj8sqzfyt","sub02","02","2","feedback","test","null","","","na","","208","",""
"1367.7000000029802","544986","HierDyj8sqzfyt","sub02","02","2","rl","test","75","img/o_d_check.png","7","75","color,shape,pattern","209","1",""
"null","545993","HierDyj8sqzfyt","sub02","02","2","feedback","test","null","","","na","","209","",""
"979.0999999940395","546974","HierDyj8sqzfyt","sub02","02","2","rl","test","68","img/p_d_check.png","3","68","color,shape,pattern","210","1",""
"null","547977","HierDyj8sqzfyt","sub02","02","2","feedback","test","null","","","na","","210","",""
"772.2999999970198","548752","HierDyj8sqzfyt","sub02","02","2","rl","test","70","img/p_d_diag.png","4","70","color,shape,pattern","211","1",""
"null","549754","HierDyj8sqzfyt","sub02","02","2","feedback","test","null","","","na","","211","",""
"678.2000000029802","550434","HierDyj8sqzfyt","sub02","02","2","rl","test","76","img/o_d_diag.png","8","76","color,shape,pattern","212","1",""
"null","551441","HierDyj8sqzfyt","sub02","02","2","feedback","test","null","","","na","","212","",""
"1274.5","552718","HierDyj8sqzfyt","sub02","02","2","rl","test","65","img/p_t_check.png","1","65","color,shape,pattern","213","1",""
"null","553722","HierDyj8sqzfyt","sub02","02","2","feedback","test","null","","","na","","213","",""
"1577.800000011921","555302","HierDyj8sqzfyt","sub02","02","2","rl","test","74","img/o_t_diag.png","6","74","color,shape,pattern","214","1",""
"null","556306","HierDyj8sqzfyt","sub02","02","2","feedback","test","null","","","na","","214","",""
"934","557242","HierDyj8sqzfyt","sub02","02","2","rl","test","68","img/p_d_check.png","3","68","color,shape,pattern","215","1",""
"null","558250","HierDyj8sqzfyt","sub02","02","2","feedback","test","null","","","na","","215","",""
"1423","559675","HierDyj8sqzfyt","sub02","02","2","rl","test","83","img/p_t_diag.png","2","83","color,shape,pattern","216","1",""
"null","560681","HierDyj8sqzfyt","sub02","02","2","feedback","test","null","","","na","","216","",""
"2084.1000000089407","562767","HierDyj8sqzfyt","sub02","02","2","rl","test","65","img/p_t_check.png","1","65","color,shape,pattern","217","1",""
"null","563771","HierDyj8sqzfyt","sub02","02","2","feedback","test","null","","","na","","217","",""
"1225.9000000059605","564998","HierDyj8sqzfyt","sub02","02","2","rl","test","83","img/p_t_diag.png","2","83","color,shape,pattern","218","1",""
"null","566006","HierDyj8sqzfyt","sub02","02","2","feedback","test","null","","","na","","218","",""
"1525.6000000089407","567533","HierDyj8sqzfyt","sub02","02","2","rl","test","72","img/o_t_check.png","5","72","color,shape,pattern","219","1",""
"null","568540","HierDyj8sqzfyt","sub02","02","2","feedback","test","null","","","na","","219","",""
"1269.7999999970198","569812","HierDyj8sqzfyt","sub02","02","2","rl","test","65","img/p_d_diag.png","4","70","color,shape,pattern","220","0",""
"null","570816","HierDyj8sqzfyt","sub02","02","2","feedback","test","null","","","na","","220","",""
"938.9000000059605","571757","HierDyj8sqzfyt","sub02","02","2","rl","test","68","img/p_t_diag.png","2","83","color,shape,pattern","221","0",""
"null","572764","HierDyj8sqzfyt","sub02","02","2","feedback","test","null","","","na","","221","",""
"796.5","573563","HierDyj8sqzfyt","sub02","02","2","rl","test","68","img/p_d_check.png","3","68","color,shape,pattern","222","1",""
"null","574566","HierDyj8sqzfyt","sub02","02","2","feedback","test","null","","","na","","222","",""
"1283.8999999910593","575852","HierDyj8sqzfyt","sub02","02","2","rl","test","75","img/o_d_check.png","7","75","color,shape,pattern","223","1",""
"null","576857","HierDyj8sqzfyt","sub02","02","2","feedback","test","null","","","na","","223","",""
"1250.2999999970198","578110","HierDyj8sqzfyt","sub02","02","2","rl","test","74","img/o_t_diag.png","6","74","color,shape,pattern","224","1",""
"null","579112","HierDyj8sqzfyt","sub02","02","2","feedback","test","null","","","na","","224","",""
"588.5","579703","HierDyj8sqzfyt","sub02","02","2","rl","test","74","img/o_t_diag.png","6","74","color,shape,pattern","225","1",""
"null","580706","HierDyj8sqzfyt","sub02","02","2","feedback","test","null","","","na","","225","",""
"733.5","581442","HierDyj8sqzfyt","sub02","02","2","rl","test","76","img/o_d_diag.png","8","76","color,shape,pattern","226","1",""
"null","582448","HierDyj8sqzfyt","sub02","02","2","feedback","test","null","","","na","","226","",""
"798.2999999970198","583248","HierDyj8sqzfyt","sub02","02","2","rl","test","76","img/o_d_diag.png","8","76","color,shape,pattern","227","1",""
"null","584255","HierDyj8sqzfyt","sub02","02","2","feedback","test","null","","","na","","227","",""
"851.6000000089407","585109","HierDyj8sqzfyt","sub02","02","2","rl","test","75","img/o_d_check.png","7","75","color,shape,pattern","228","1",""
"null","586116","HierDyj8sqzfyt","sub02","02","2","feedback","test","null","","","na","","228","",""
"970.5","587088","HierDyj8sqzfyt","sub02","02","2","rl","test","65","img/p_t_check.png","1","65","color,shape,pattern","229","1",""
"null","588095","HierDyj8sqzfyt","sub02","02","2","feedback","test","null","","","na","","229","",""
"674.0999999940395","588771","HierDyj8sqzfyt","sub02","02","2","rl","test","68","img/p_d_check.png","3","68","color,shape,pattern","230","1",""
"null","589775","HierDyj8sqzfyt","sub02","02","2","feedback","test","null","","","na","","230","",""
"836.7999999970198","590614","HierDyj8sqzfyt","sub02","02","2","rl","test","70","img/p_d_diag.png","4","70","color,shape,pattern","231","1",""
"null","591621","HierDyj8sqzfyt","sub02","02","2","feedback","test","null","","","na","","231","",""
"2234.2000000029802","593857","HierDyj8sqzfyt","sub02","02","2","rl","test","65","img/o_t_check.png","5","72","color,shape,pattern","232","0",""
"null","594864","HierDyj8sqzfyt","sub02","02","2","feedback","test","null","","","na","","232","",""
"869.5","595736","HierDyj8sqzfyt","sub02","02","2","rl","test","76","img/o_d_diag.png","8","76","color,shape,pattern","233","1",""
"null","596741","HierDyj8sqzfyt","sub02","02","2","feedback","test","null","","","na","","233","",""
"1034.0999999940395","597777","HierDyj8sqzfyt","sub02","02","2","rl","test","72","img/o_t_check.png","5","72","color,shape,pattern","234","1",""
"null","598784","HierDyj8sqzfyt","sub02","02","2","feedback","test","null","","","na","","234","",""
"1915.5999999940395","600702","HierDyj8sqzfyt","sub02","02","2","rl","test","70","img/p_d_diag.png","4","70","color,shape,pattern","235","1",""
"null","601709","HierDyj8sqzfyt","sub02","02","2","feedback","test","null","","","na","","235","",""
"1386.7000000029802","603098","HierDyj8sqzfyt","sub02","02","2","rl","test","83","img/p_t_diag.png","2","83","color,shape,pattern","236","1",""
"null","604104","HierDyj8sqzfyt","sub02","02","2","feedback","test","null","","","na","","236","",""
"2130.4000000059605","606236","HierDyj8sqzfyt","sub02","02","2","rl","test","75","img/o_d_check.png","7","75","color,shape,pattern","237","1",""
"null","607243","HierDyj8sqzfyt","sub02","02","2","feedback","test","null","","","na","","237","",""
"1523.7999999970198","608769","HierDyj8sqzfyt","sub02","02","2","rl","test","70","img/p_d_diag.png","4","70","color,shape,pattern","238","1",""
"null","609776","HierDyj8sqzfyt","sub02","02","2","feedback","test","null","","","na","","238","",""
"1803.2000000029802","611582","HierDyj8sqzfyt","sub02","02","2","rl","test","72","img/p_t_check.png","1","65","color,shape,pattern","239","0",""
"null","612589","HierDyj8sqzfyt","sub02","02","2","feedback","test","null","","","na","","239","",""
"2358.8999999910593","614950","HierDyj8sqzfyt","sub02","02","2","rl","test","68","img/o_t_diag.png","6","74","color,shape,pattern","240","0",""
"null","615958","HierDyj8sqzfyt","sub02","02","2","feedback","test","null","","","na","","240","",""
"2132.0999999940395","618092","HierDyj8sqzfyt","sub02","02","2","rl","test","68","img/p_d_check.png","3","68","color,shape,pattern","241","1",""
"null","619097","HierDyj8sqzfyt","sub02","02","2","feedback","test","null","","","na","","241","",""
"2298.6000000089407","621398","HierDyj8sqzfyt","sub02","02","2","rl","test","83","img/p_t_diag.png","2","83","color,shape,pattern","242","1",""
"null","622405","HierDyj8sqzfyt","sub02","02","2","feedback","test","null","","","na","","242","",""
"670.2999999970198","623078","HierDyj8sqzfyt","sub02","02","2","rl","test","65","img/p_t_check.png","1","65","color,shape,pattern","243","1",""
"null","624085","HierDyj8sqzfyt","sub02","02","2","feedback","test","null","","","na","","243","",""
"848.7000000029802","624936","HierDyj8sqzfyt","sub02","02","2","rl","test","68","img/p_d_check.png","3","68","color,shape,pattern","244","1",""
"null","625943","HierDyj8sqzfyt","sub02","02","2","feedback","test","null","","","na","","244","",""
"1131.5999999940395","627077","HierDyj8sqzfyt","sub02","02","2","rl","test","75","img/o_d_check.png","7","75","color,shape,pattern","245","1",""
"null","628085","HierDyj8sqzfyt","sub02","02","2","feedback","test","null","","","na","","245","",""
"1749.5999999940395","629836","HierDyj8sqzfyt","sub02","02","2","rl","test","72","img/o_t_check.png","5","72","color,shape,pattern","246","1",""
"null","630843","HierDyj8sqzfyt","sub02","02","2","feedback","test","null","","","na","","246","",""
"1338.9000000059605","632184","HierDyj8sqzfyt","sub02","02","2","rl","test","74","img/o_t_diag.png","6","74","color,shape,pattern","247","1",""
"null","633187","HierDyj8sqzfyt","sub02","02","2","feedback","test","null","","","na","","247","",""
"728.5","633918","HierDyj8sqzfyt","sub02","02","2","rl","test","76","img/o_d_diag.png","8","76","color,shape,pattern","248","1",""
"null","634921","HierDyj8sqzfyt","sub02","02","2","feedback","test","null","","","na","","248","",""
"10242.79999999702","645169","HierDyj8sqzfyt","sub02","02","2","","","","","","","","","","{""Q0"":""8""}"
"155909.90000000596","801082","HierDyj8sqzfyt","sub02","02","2","","","","","","","","","","{""Q0"":""I remembered where the patterns were from yesterday and I used the same strategy from yesterday which was corresponding the color purple with the left hand and the color orange with the right hand and corresponding the four fingers on each hand with the striped diamond, checkered diamond, striped triangle, and checkered triangle from right to left on each hand respectively. ""}"
"6996.79999999702","808079","HierDyj8sqzfyt","sub02","02","2","","","","","","","","","",""
