"rt","time_elapsed","subject","subID","group","day","trialType","phase","key_press","stim","stimNum","corrresp","hierarchy","trialNum","corr","responses"
"4214.80000000447","4217","HierDynmaqe1eo","sub26","02","02","","","","","","","","","",""
"","6866","HierDynmaqe1eo","sub26","02","02","fullscreen","","","","","","","","",""
"18913.10000000149","25781","HierDynmaqe1eo","sub26","02","02","","prac","","","","","","","",""
"4583.20000000298","30369","HierDynmaqe1eo","sub26","02","02","","","32","","","","","","",""
"1820.3999999985099","32191","HierDynmaqe1eo","sub26","02","02","","prac","","","","","","","",""
"1187.4000000059605","33382","HierDynmaqe1eo","sub26","02","02","rl","test","74","img/p_d_diag.png","4","70","color,shape,pattern","1","0",""
"null","34397","HierDynmaqe1eo","sub26","02","02","feedback","test","null","","","na","","1","",""
"890.6999999955297","35290","HierDynmaqe1eo","sub26","02","02","rl","test","72","img/o_t_diag.png","6","74","color,shape,pattern","2","0",""
"null","36301","HierDynmaqe1eo","sub26","02","02","feedback","test","null","","","na","","2","",""
"814.2999999970198","37118","HierDynmaqe1eo","sub26","02","02","rl","test","70","img/o_t_check.png","5","72","color,shape,pattern","3","0",""
"null","38125","HierDynmaqe1eo","sub26","02","02","feedback","test","null","","","na","","3","",""
"1341","39468","HierDynmaqe1eo","sub26","02","02","rl","test","70","img/p_t_diag.png","2","83","color,shape,pattern","4","0",""
"null","40473","HierDynmaqe1eo","sub26","02","02","feedback","test","null","","","na","","4","",""
"916.1000000014901","41391","HierDynmaqe1eo","sub26","02","02","rl","test","65","img/p_t_check.png","1","65","color,shape,pattern","5","1",""
"null","42401","HierDynmaqe1eo","sub26","02","02","feedback","test","null","","","na","","5","",""
"1003.5","43407","HierDynmaqe1eo","sub26","02","02","rl","test","74","img/o_d_check.png","7","75","color,shape,pattern","6","0",""
"null","44416","HierDynmaqe1eo","sub26","02","02","feedback","test","null","","","na","","6","",""
"1031.8000000044703","45450","HierDynmaqe1eo","sub26","02","02","rl","test","83","img/p_t_diag.png","2","83","color,shape,pattern","7","1",""
"null","46460","HierDynmaqe1eo","sub26","02","02","feedback","test","null","","","na","","7","",""
"946.6999999955297","47409","HierDynmaqe1eo","sub26","02","02","rl","test","68","img/p_d_check.png","3","68","color,shape,pattern","8","1",""
"null","48416","HierDynmaqe1eo","sub26","02","02","feedback","test","null","","","na","","8","",""
"1355.5999999940395","49774","HierDynmaqe1eo","sub26","02","02","rl","test","75","img/o_d_diag.png","8","76","color,shape,pattern","9","0",""
"null","50777","HierDynmaqe1eo","sub26","02","02","feedback","test","null","","","na","","9","",""
"922.3000000044703","51701","HierDynmaqe1eo","sub26","02","02","rl","test","76","img/o_d_diag.png","8","76","color,shape,pattern","10","1",""
"null","52709","HierDynmaqe1eo","sub26","02","02","feedback","test","null","","","na","","10","",""
"940.6000000014901","53652","HierDynmaqe1eo","sub26","02","02","rl","test","75","img/o_t_check.png","5","72","color,shape,pattern","11","0",""
"null","54658","HierDynmaqe1eo","sub26","02","02","feedback","test","null","","","na","","11","",""
"1152.9000000059605","55813","HierDynmaqe1eo","sub26","02","02","rl","test","68","img/p_d_diag.png","4","70","color,shape,pattern","12","0",""
"null","56821","HierDynmaqe1eo","sub26","02","02","feedback","test","null","","","na","","12","",""
"1190.2999999970198","58013","HierDynmaqe1eo","sub26","02","02","rl","test","68","img/p_d_check.png","3","68","color,shape,pattern","13","1",""
"null","59021","HierDynmaqe1eo","sub26","02","02","feedback","test","null","","","na","","13","",""
"1041.2999999970198","60065","HierDynmaqe1eo","sub26","02","02","rl","test","76","img/o_d_check.png","7","75","color,shape,pattern","14","0",""
"null","61077","HierDynmaqe1eo","sub26","02","02","feedback","test","null","","","na","","14","",""
"1134.1999999955297","62213","HierDynmaqe1eo","sub26","02","02","rl","test","72","img/o_t_diag.png","6","74","color,shape,pattern","15","0",""
"null","63217","HierDynmaqe1eo","sub26","02","02","feedback","test","null","","","na","","15","",""
"843.5","64063","HierDynmaqe1eo","sub26","02","02","rl","test","65","img/p_t_check.png","1","65","color,shape,pattern","16","1",""
"null","65077","HierDynmaqe1eo","sub26","02","02","feedback","test","null","","","na","","16","",""
"1178.2999999970198","66258","HierDynmaqe1eo","sub26","02","02","rl","test","74","img/o_t_diag.png","6","74","color,shape,pattern","17","1",""
"null","67269","HierDynmaqe1eo","sub26","02","02","feedback","test","null","","","na","","17","",""
"1308.7999999970198","68580","HierDynmaqe1eo","sub26","02","02","rl","test","68","img/p_d_diag.png","4","70","color,shape,pattern","18","0",""
"null","69587","HierDynmaqe1eo","sub26","02","02","feedback","test","null","","","na","","18","",""
"1191.3000000044703","70780","HierDynmaqe1eo","sub26","02","02","rl","test","83","img/p_t_diag.png","2","83","color,shape,pattern","19","1",""
"null","71789","HierDynmaqe1eo","sub26","02","02","feedback","test","null","","","na","","19","",""
"1005.7999999970198","72797","HierDynmaqe1eo","sub26","02","02","rl","test","65","img/p_t_check.png","1","65","color,shape,pattern","20","1",""
"null","73805","HierDynmaqe1eo","sub26","02","02","feedback","test","null","","","na","","20","",""
"1239.6000000014901","75047","HierDynmaqe1eo","sub26","02","02","rl","test","76","img/o_t_check.png","5","72","color,shape,pattern","21","0",""
"null","76058","HierDynmaqe1eo","sub26","02","02","feedback","test","null","","","na","","21","",""
"1092.8000000044703","77153","HierDynmaqe1eo","sub26","02","02","rl","test","68","img/p_d_check.png","3","68","color,shape,pattern","22","1",""
"null","78162","HierDynmaqe1eo","sub26","02","02","feedback","test","null","","","na","","22","",""
"906.5","79071","HierDynmaqe1eo","sub26","02","02","rl","test","76","img/o_d_check.png","7","75","color,shape,pattern","23","0",""
"null","80082","HierDynmaqe1eo","sub26","02","02","feedback","test","null","","","na","","23","",""
"888.5","80972","HierDynmaqe1eo","sub26","02","02","rl","test","76","img/o_d_diag.png","8","76","color,shape,pattern","24","1",""
"null","81974","HierDynmaqe1eo","sub26","02","02","feedback","test","null","","","na","","24","",""
"798.9000000059605","82775","HierDynmaqe1eo","sub26","02","02","rl","test","76","img/o_d_diag.png","8","76","color,shape,pattern","25","1",""
"null","83789","HierDynmaqe1eo","sub26","02","02","feedback","test","null","","","na","","25","",""
"846.7999999970198","84638","HierDynmaqe1eo","sub26","02","02","rl","test","83","img/p_t_diag.png","2","83","color,shape,pattern","26","1",""
"null","85653","HierDynmaqe1eo","sub26","02","02","feedback","test","null","","","na","","26","",""
"799.8000000044703","86455","HierDynmaqe1eo","sub26","02","02","rl","test","76","img/o_d_diag.png","8","76","color,shape,pattern","27","1",""
"null","87464","HierDynmaqe1eo","sub26","02","02","feedback","test","null","","","na","","27","",""
"1077","88542","HierDynmaqe1eo","sub26","02","02","rl","test","68","img/p_d_check.png","3","68","color,shape,pattern","28","1",""
"null","89557","HierDynmaqe1eo","sub26","02","02","feedback","test","null","","","na","","28","",""
"708.8999999985099","90268","HierDynmaqe1eo","sub26","02","02","rl","test","70","img/p_d_diag.png","4","70","color,shape,pattern","29","1",""
"null","91272","HierDynmaqe1eo","sub26","02","02","feedback","test","null","","","na","","29","",""
"1480.5","92754","HierDynmaqe1eo","sub26","02","02","rl","test","72","img/o_d_check.png","7","75","color,shape,pattern","30","0",""
"null","93760","HierDynmaqe1eo","sub26","02","02","feedback","test","null","","","na","","30","",""
"967.2999999970198","94730","HierDynmaqe1eo","sub26","02","02","rl","test","75","img/o_t_diag.png","6","74","color,shape,pattern","31","0",""
"null","95737","HierDynmaqe1eo","sub26","02","02","feedback","test","null","","","na","","31","",""
"895.5","96634","HierDynmaqe1eo","sub26","02","02","rl","test","65","img/p_t_check.png","1","65","color,shape,pattern","32","1",""
"null","97641","HierDynmaqe1eo","sub26","02","02","feedback","test","null","","","na","","32","",""
"1383.4000000059605","99026","HierDynmaqe1eo","sub26","02","02","rl","test","75","img/o_d_check.png","7","75","color,shape,pattern","33","1",""
"null","100033","HierDynmaqe1eo","sub26","02","02","feedback","test","null","","","na","","33","",""
"916.0999999940395","100951","HierDynmaqe1eo","sub26","02","02","rl","test","74","img/o_t_check.png","5","72","color,shape,pattern","34","0",""
"null","101965","HierDynmaqe1eo","sub26","02","02","feedback","test","null","","","na","","34","",""
"853.7000000029802","102821","HierDynmaqe1eo","sub26","02","02","rl","test","65","img/p_t_check.png","1","65","color,shape,pattern","35","1",""
"null","103829","HierDynmaqe1eo","sub26","02","02","feedback","test","null","","","na","","35","",""
"866.5","104697","HierDynmaqe1eo","sub26","02","02","rl","test","74","img/o_t_diag.png","6","74","color,shape,pattern","36","1",""
"null","105709","HierDynmaqe1eo","sub26","02","02","feedback","test","null","","","na","","36","",""
"1093.6000000014901","106805","HierDynmaqe1eo","sub26","02","02","rl","test","70","img/p_d_diag.png","4","70","color,shape,pattern","37","1",""
"null","107809","HierDynmaqe1eo","sub26","02","02","feedback","test","null","","","na","","37","",""
"926.8000000044703","108738","HierDynmaqe1eo","sub26","02","02","rl","test","76","img/o_t_check.png","5","72","color,shape,pattern","38","0",""
"null","109749","HierDynmaqe1eo","sub26","02","02","feedback","test","null","","","na","","38","",""
"1071.3999999985099","110822","HierDynmaqe1eo","sub26","02","02","rl","test","68","img/p_d_diag.png","4","70","color,shape,pattern","39","0",""
"null","111837","HierDynmaqe1eo","sub26","02","02","feedback","test","null","","","na","","39","",""
"1067.5","112907","HierDynmaqe1eo","sub26","02","02","rl","test","83","img/p_t_diag.png","2","83","color,shape,pattern","40","1",""
"null","113917","HierDynmaqe1eo","sub26","02","02","feedback","test","null","","","na","","40","",""
"1267.5","115187","HierDynmaqe1eo","sub26","02","02","rl","test","68","img/p_d_check.png","3","68","color,shape,pattern","41","1",""
"null","116194","HierDynmaqe1eo","sub26","02","02","feedback","test","null","","","na","","41","",""
"1336.3999999985099","117533","HierDynmaqe1eo","sub26","02","02","rl","test","75","img/o_d_diag.png","8","76","color,shape,pattern","42","0",""
"null","118541","HierDynmaqe1eo","sub26","02","02","feedback","test","null","","","na","","42","",""
"1149.6999999955297","119693","HierDynmaqe1eo","sub26","02","02","rl","test","76","img/o_d_check.png","7","75","color,shape,pattern","43","0",""
"null","120701","HierDynmaqe1eo","sub26","02","02","feedback","test","null","","","na","","43","",""
"898.5","121601","HierDynmaqe1eo","sub26","02","02","rl","test","76","img/o_t_diag.png","6","74","color,shape,pattern","44","0",""
"null","122609","HierDynmaqe1eo","sub26","02","02","feedback","test","null","","","na","","44","",""
"882.7000000029802","123494","HierDynmaqe1eo","sub26","02","02","rl","test","65","img/p_t_check.png","1","65","color,shape,pattern","45","1",""
"null","124501","HierDynmaqe1eo","sub26","02","02","feedback","test","null","","","na","","45","",""
"721.3000000044703","125224","HierDynmaqe1eo","sub26","02","02","rl","test","65","img/p_t_check.png","1","65","color,shape,pattern","46","1",""
"null","126237","HierDynmaqe1eo","sub26","02","02","feedback","test","null","","","na","","46","",""
"1469","127708","HierDynmaqe1eo","sub26","02","02","rl","test","74","img/o_t_check.png","5","72","color,shape,pattern","47","0",""
"null","128717","HierDynmaqe1eo","sub26","02","02","feedback","test","null","","","na","","47","",""
"1297.1000000014901","130016","HierDynmaqe1eo","sub26","02","02","rl","test","70","img/p_d_check.png","3","68","color,shape,pattern","48","0",""
"null","131025","HierDynmaqe1eo","sub26","02","02","feedback","test","null","","","na","","48","",""
"881.3999999985099","131908","HierDynmaqe1eo","sub26","02","02","rl","test","83","img/p_t_diag.png","2","83","color,shape,pattern","49","1",""
"null","132917","HierDynmaqe1eo","sub26","02","02","feedback","test","null","","","na","","49","",""
"1330.8000000044703","134250","HierDynmaqe1eo","sub26","02","02","rl","test","68","img/p_d_check.png","3","68","color,shape,pattern","50","1",""
"null","135259","HierDynmaqe1eo","sub26","02","02","feedback","test","null","","","na","","50","",""
"1730","136991","HierDynmaqe1eo","sub26","02","02","rl","test","74","img/o_t_check.png","5","72","color,shape,pattern","51","0",""
"null","138005","HierDynmaqe1eo","sub26","02","02","feedback","test","null","","","na","","51","",""
"1645.8999999985099","139652","HierDynmaqe1eo","sub26","02","02","rl","test","65","img/p_t_diag.png","2","83","color,shape,pattern","52","0",""
"null","140659","HierDynmaqe1eo","sub26","02","02","feedback","test","null","","","na","","52","",""
"969.7999999970198","141631","HierDynmaqe1eo","sub26","02","02","rl","test","68","img/p_d_diag.png","4","70","color,shape,pattern","53","0",""
"null","142645","HierDynmaqe1eo","sub26","02","02","feedback","test","null","","","na","","53","",""
"1163.9000000059605","143811","HierDynmaqe1eo","sub26","02","02","rl","test","75","img/o_d_diag.png","8","76","color,shape,pattern","54","0",""
"null","144821","HierDynmaqe1eo","sub26","02","02","feedback","test","null","","","na","","54","",""
"1274.8000000044703","146098","HierDynmaqe1eo","sub26","02","02","rl","test","74","img/o_t_diag.png","6","74","color,shape,pattern","55","1",""
"null","147108","HierDynmaqe1eo","sub26","02","02","feedback","test","null","","","na","","55","",""
"750.2000000029802","147861","HierDynmaqe1eo","sub26","02","02","rl","test","74","img/o_t_diag.png","6","74","color,shape,pattern","56","1",""
"null","148865","HierDynmaqe1eo","sub26","02","02","feedback","test","null","","","na","","56","",""
"1673.7000000029802","150541","HierDynmaqe1eo","sub26","02","02","rl","test","83","img/p_t_diag.png","2","83","color,shape,pattern","57","1",""
"null","151549","HierDynmaqe1eo","sub26","02","02","feedback","test","null","","","na","","57","",""
"1364.3000000044703","152916","HierDynmaqe1eo","sub26","02","02","rl","test","75","img/o_d_check.png","7","75","color,shape,pattern","58","1",""
"null","153925","HierDynmaqe1eo","sub26","02","02","feedback","test","null","","","na","","58","",""
"1006.0999999940395","154934","HierDynmaqe1eo","sub26","02","02","rl","test","70","img/p_d_diag.png","4","70","color,shape,pattern","59","1",""
"null","155941","HierDynmaqe1eo","sub26","02","02","feedback","test","null","","","na","","59","",""
"716","156660","HierDynmaqe1eo","sub26","02","02","rl","test","68","img/p_d_check.png","3","68","color,shape,pattern","60","1",""
"null","157669","HierDynmaqe1eo","sub26","02","02","feedback","test","null","","","na","","60","",""
"770.5","158442","HierDynmaqe1eo","sub26","02","02","rl","test","65","img/p_t_check.png","1","65","color,shape,pattern","61","1",""
"null","159453","HierDynmaqe1eo","sub26","02","02","feedback","test","null","","","na","","61","",""
"1269.3000000044703","160725","HierDynmaqe1eo","sub26","02","02","rl","test","75","img/o_d_diag.png","8","76","color,shape,pattern","62","0",""
"null","161733","HierDynmaqe1eo","sub26","02","02","feedback","test","null","","","na","","62","",""
"1044","162780","HierDynmaqe1eo","sub26","02","02","rl","test","65","img/p_t_check.png","1","65","color,shape,pattern","63","1",""
"null","163785","HierDynmaqe1eo","sub26","02","02","feedback","test","null","","","na","","63","",""
"1074.2000000029802","164862","HierDynmaqe1eo","sub26","02","02","rl","test","72","img/o_t_check.png","5","72","color,shape,pattern","64","1",""
"null","165865","HierDynmaqe1eo","sub26","02","02","feedback","test","null","","","na","","64","",""
"902.1000000014901","166770","HierDynmaqe1eo","sub26","02","02","rl","test","76","img/o_d_check.png","7","75","color,shape,pattern","65","0",""
"null","167781","HierDynmaqe1eo","sub26","02","02","feedback","test","null","","","na","","65","",""
"1575.6000000014901","169359","HierDynmaqe1eo","sub26","02","02","rl","test","68","img/p_d_check.png","3","68","color,shape,pattern","66","1",""
"null","170373","HierDynmaqe1eo","sub26","02","02","feedback","test","null","","","na","","66","",""
"676.8000000044703","171052","HierDynmaqe1eo","sub26","02","02","rl","test","72","img/o_t_check.png","5","72","color,shape,pattern","67","1",""
"null","172057","HierDynmaqe1eo","sub26","02","02","feedback","test","null","","","na","","67","",""
"1380.6000000014901","173440","HierDynmaqe1eo","sub26","02","02","rl","test","83","img/p_t_diag.png","2","83","color,shape,pattern","68","1",""
"null","174449","HierDynmaqe1eo","sub26","02","02","feedback","test","null","","","na","","68","",""
"1465.3999999985099","175916","HierDynmaqe1eo","sub26","02","02","rl","test","75","img/o_d_check.png","7","75","color,shape,pattern","69","1",""
"null","176923","HierDynmaqe1eo","sub26","02","02","feedback","test","null","","","na","","69","",""
"1192.1000000014901","178118","HierDynmaqe1eo","sub26","02","02","rl","test","74","img/o_t_diag.png","6","74","color,shape,pattern","70","1",""
"null","179125","HierDynmaqe1eo","sub26","02","02","feedback","test","null","","","na","","70","",""
"1251.6000000014901","180379","HierDynmaqe1eo","sub26","02","02","rl","test","68","img/p_d_diag.png","4","70","color,shape,pattern","71","0",""
"null","181387","HierDynmaqe1eo","sub26","02","02","feedback","test","null","","","na","","71","",""
"1013.2999999970198","182402","HierDynmaqe1eo","sub26","02","02","rl","test","76","img/o_t_check.png","5","72","color,shape,pattern","72","0",""
"null","183410","HierDynmaqe1eo","sub26","02","02","feedback","test","null","","","na","","72","",""
"934.2999999970198","184346","HierDynmaqe1eo","sub26","02","02","rl","test","75","img/o_d_diag.png","8","76","color,shape,pattern","73","0",""
"null","185357","HierDynmaqe1eo","sub26","02","02","feedback","test","null","","","na","","73","",""
"1035.6000000014901","186395","HierDynmaqe1eo","sub26","02","02","rl","test","75","img/o_d_diag.png","8","76","color,shape,pattern","74","0",""
"null","187405","HierDynmaqe1eo","sub26","02","02","feedback","test","null","","","na","","74","",""
"1509","188917","HierDynmaqe1eo","sub26","02","02","rl","test","70","img/p_d_diag.png","4","70","color,shape,pattern","75","1",""
"null","189924","HierDynmaqe1eo","sub26","02","02","feedback","test","null","","","na","","75","",""
"1051.1000000014901","190977","HierDynmaqe1eo","sub26","02","02","rl","test","72","img/o_t_diag.png","6","74","color,shape,pattern","76","0",""
"null","191986","HierDynmaqe1eo","sub26","02","02","feedback","test","null","","","na","","76","",""
"1785.8999999985099","193774","HierDynmaqe1eo","sub26","02","02","rl","test","76","img/o_d_check.png","7","75","color,shape,pattern","77","0",""
"null","194777","HierDynmaqe1eo","sub26","02","02","feedback","test","null","","","na","","77","",""
"877.4000000059605","195657","HierDynmaqe1eo","sub26","02","02","rl","test","65","img/p_t_check.png","1","65","color,shape,pattern","78","1",""
"null","196668","HierDynmaqe1eo","sub26","02","02","feedback","test","null","","","na","","78","",""
"1312.1000000014901","197982","HierDynmaqe1eo","sub26","02","02","rl","test","70","img/p_d_check.png","3","68","color,shape,pattern","79","0",""
"null","198996","HierDynmaqe1eo","sub26","02","02","feedback","test","null","","","na","","79","",""
"667.1000000014901","199665","HierDynmaqe1eo","sub26","02","02","rl","test","83","img/p_t_diag.png","2","83","color,shape,pattern","80","1",""
"null","200673","HierDynmaqe1eo","sub26","02","02","feedback","test","null","","","na","","80","",""
"1907.9000000059605","202583","HierDynmaqe1eo","sub26","02","02","rl","test","75","img/o_d_diag.png","8","76","color,shape,pattern","81","0",""
"null","203597","HierDynmaqe1eo","sub26","02","02","feedback","test","null","","","na","","81","",""
"1708.7999999970198","205308","HierDynmaqe1eo","sub26","02","02","rl","test","74","img/o_t_check.png","5","72","color,shape,pattern","82","0",""
"null","206313","HierDynmaqe1eo","sub26","02","02","feedback","test","null","","","na","","82","",""
"706.7999999970198","207022","HierDynmaqe1eo","sub26","02","02","rl","test","65","img/p_t_check.png","1","65","color,shape,pattern","83","1",""
"null","208029","HierDynmaqe1eo","sub26","02","02","feedback","test","null","","","na","","83","",""
"1844.8000000044703","209876","HierDynmaqe1eo","sub26","02","02","rl","test","70","img/p_d_diag.png","4","70","color,shape,pattern","84","1",""
"null","210882","HierDynmaqe1eo","sub26","02","02","feedback","test","null","","","na","","84","",""
"929.4000000059605","211814","HierDynmaqe1eo","sub26","02","02","rl","test","83","img/p_t_diag.png","2","83","color,shape,pattern","85","1",""
"null","212821","HierDynmaqe1eo","sub26","02","02","feedback","test","null","","","na","","85","",""
"1548.1000000014901","214372","HierDynmaqe1eo","sub26","02","02","rl","test","72","img/o_t_diag.png","6","74","color,shape,pattern","86","0",""
"null","215379","HierDynmaqe1eo","sub26","02","02","feedback","test","null","","","na","","86","",""
"1359.5","216740","HierDynmaqe1eo","sub26","02","02","rl","test","70","img/p_d_check.png","3","68","color,shape,pattern","87","0",""
"null","217749","HierDynmaqe1eo","sub26","02","02","feedback","test","null","","","na","","87","",""
"1043.1999999955297","218795","HierDynmaqe1eo","sub26","02","02","rl","test","76","img/o_t_diag.png","6","74","color,shape,pattern","88","0",""
"null","219805","HierDynmaqe1eo","sub26","02","02","feedback","test","null","","","na","","88","",""
"1278.1000000014901","221086","HierDynmaqe1eo","sub26","02","02","rl","test","75","img/o_d_check.png","7","75","color,shape,pattern","89","1",""
"null","222090","HierDynmaqe1eo","sub26","02","02","feedback","test","null","","","na","","89","",""
"1777.7000000029802","223870","HierDynmaqe1eo","sub26","02","02","rl","test","68","img/p_d_check.png","3","68","color,shape,pattern","90","1",""
"null","224878","HierDynmaqe1eo","sub26","02","02","feedback","test","null","","","na","","90","",""
"1388.3000000044703","226268","HierDynmaqe1eo","sub26","02","02","rl","test","83","img/p_t_diag.png","2","83","color,shape,pattern","91","1",""
"null","227277","HierDynmaqe1eo","sub26","02","02","feedback","test","null","","","na","","91","",""
"1420.3999999985099","228699","HierDynmaqe1eo","sub26","02","02","rl","test","74","img/o_d_diag.png","8","76","color,shape,pattern","92","0",""
"null","229707","HierDynmaqe1eo","sub26","02","02","feedback","test","null","","","na","","92","",""
"622.6999999955297","230332","HierDynmaqe1eo","sub26","02","02","rl","test","75","img/o_d_check.png","7","75","color,shape,pattern","93","1",""
"null","231341","HierDynmaqe1eo","sub26","02","02","feedback","test","null","","","na","","93","",""
"481.79999999701977","231823","HierDynmaqe1eo","sub26","02","02","rl","test","75","img/o_d_check.png","7","75","color,shape,pattern","94","1",""
"null","232837","HierDynmaqe1eo","sub26","02","02","feedback","test","null","","","na","","94","",""
"1348.0999999940395","234187","HierDynmaqe1eo","sub26","02","02","rl","test","74","img/o_t_check.png","5","72","color,shape,pattern","95","0",""
"null","235195","HierDynmaqe1eo","sub26","02","02","feedback","test","null","","","na","","95","",""
"1191.8999999985099","236389","HierDynmaqe1eo","sub26","02","02","rl","test","68","img/p_d_diag.png","4","70","color,shape,pattern","96","0",""
"null","237397","HierDynmaqe1eo","sub26","02","02","feedback","test","null","","","na","","96","",""
"824.2999999970198","238223","HierDynmaqe1eo","sub26","02","02","rl","test","65","img/p_t_check.png","1","65","color,shape,pattern","97","1",""
"null","239229","HierDynmaqe1eo","sub26","02","02","feedback","test","null","","","na","","97","",""
"2061.10000000149","241292","HierDynmaqe1eo","sub26","02","02","rl","test","75","img/o_t_check.png","5","72","color,shape,pattern","98","0",""
"null","242299","HierDynmaqe1eo","sub26","02","02","feedback","test","null","","","na","","98","",""
"1711","244012","HierDynmaqe1eo","sub26","02","02","rl","test","68","img/p_d_check.png","3","68","color,shape,pattern","99","1",""
"null","245020","HierDynmaqe1eo","sub26","02","02","feedback","test","null","","","na","","99","",""
"738.1999999955297","245761","HierDynmaqe1eo","sub26","02","02","rl","test","65","img/p_t_check.png","1","65","color,shape,pattern","100","1",""
"null","246769","HierDynmaqe1eo","sub26","02","02","feedback","test","null","","","na","","100","",""
"996.4000000059605","247768","HierDynmaqe1eo","sub26","02","02","rl","test","68","img/p_d_check.png","3","68","color,shape,pattern","101","1",""
"null","248777","HierDynmaqe1eo","sub26","02","02","feedback","test","null","","","na","","101","",""
"1286.7000000029802","250066","HierDynmaqe1eo","sub26","02","02","rl","test","74","img/o_t_diag.png","6","74","color,shape,pattern","102","1",""
"null","251075","HierDynmaqe1eo","sub26","02","02","feedback","test","null","","","na","","102","",""
"1148.5","252226","HierDynmaqe1eo","sub26","02","02","rl","test","70","img/p_d_diag.png","4","70","color,shape,pattern","103","1",""
"null","253235","HierDynmaqe1eo","sub26","02","02","feedback","test","null","","","na","","103","",""
"866.3999999985099","254103","HierDynmaqe1eo","sub26","02","02","rl","test","70","img/p_d_diag.png","4","70","color,shape,pattern","104","1",""
"null","255113","HierDynmaqe1eo","sub26","02","02","feedback","test","null","","","na","","104","",""
"954.2999999970198","256070","HierDynmaqe1eo","sub26","02","02","rl","test","83","img/p_t_diag.png","2","83","color,shape,pattern","105","1",""
"null","257077","HierDynmaqe1eo","sub26","02","02","feedback","test","null","","","na","","105","",""
"779.1000000014901","257858","HierDynmaqe1eo","sub26","02","02","rl","test","65","img/p_t_check.png","1","65","color,shape,pattern","106","1",""
"null","258869","HierDynmaqe1eo","sub26","02","02","feedback","test","null","","","na","","106","",""
"1156.3999999985099","260027","HierDynmaqe1eo","sub26","02","02","rl","test","72","img/o_d_diag.png","8","76","color,shape,pattern","107","0",""
"null","261037","HierDynmaqe1eo","sub26","02","02","feedback","test","null","","","na","","107","",""
"838.3999999985099","261878","HierDynmaqe1eo","sub26","02","02","rl","test","76","img/o_d_diag.png","8","76","color,shape,pattern","108","1",""
"null","262882","HierDynmaqe1eo","sub26","02","02","feedback","test","null","","","na","","108","",""
"1174.2000000029802","264058","HierDynmaqe1eo","sub26","02","02","rl","test","72","img/o_d_check.png","7","75","color,shape,pattern","109","0",""
"null","265069","HierDynmaqe1eo","sub26","02","02","feedback","test","null","","","na","","109","",""
"1350.2000000029802","266421","HierDynmaqe1eo","sub26","02","02","rl","test","83","img/p_t_diag.png","2","83","color,shape,pattern","110","1",""
"null","267429","HierDynmaqe1eo","sub26","02","02","feedback","test","null","","","na","","110","",""
"1162.3999999985099","268593","HierDynmaqe1eo","sub26","02","02","rl","test","74","img/o_t_diag.png","6","74","color,shape,pattern","111","1",""
"null","269602","HierDynmaqe1eo","sub26","02","02","feedback","test","null","","","na","","111","",""
"1113.3999999985099","270717","HierDynmaqe1eo","sub26","02","02","rl","test","70","img/p_d_diag.png","4","70","color,shape,pattern","112","1",""
"null","271725","HierDynmaqe1eo","sub26","02","02","feedback","test","null","","","na","","112","",""
"1002.6000000014901","272730","HierDynmaqe1eo","sub26","02","02","rl","test","75","img/o_t_check.png","5","72","color,shape,pattern","113","0",""
"null","273737","HierDynmaqe1eo","sub26","02","02","feedback","test","null","","","na","","113","",""
"1245.3999999985099","274984","HierDynmaqe1eo","sub26","02","02","rl","test","68","img/p_d_check.png","3","68","color,shape,pattern","114","1",""
"null","275993","HierDynmaqe1eo","sub26","02","02","feedback","test","null","","","na","","114","",""
"1143.5","277138","HierDynmaqe1eo","sub26","02","02","rl","test","74","img/o_t_diag.png","6","74","color,shape,pattern","115","1",""
"null","278145","HierDynmaqe1eo","sub26","02","02","feedback","test","null","","","na","","115","",""
"1023.0999999940395","279170","HierDynmaqe1eo","sub26","02","02","rl","test","75","img/o_d_check.png","7","75","color,shape,pattern","116","1",""
"null","280181","HierDynmaqe1eo","sub26","02","02","feedback","test","null","","","na","","116","",""
"846.5","281028","HierDynmaqe1eo","sub26","02","02","rl","test","65","img/p_t_check.png","1","65","color,shape,pattern","117","1",""
"null","282037","HierDynmaqe1eo","sub26","02","02","feedback","test","null","","","na","","117","",""
"1080.2999999970198","283119","HierDynmaqe1eo","sub26","02","02","rl","test","76","img/o_d_diag.png","8","76","color,shape,pattern","118","1",""
"null","284133","HierDynmaqe1eo","sub26","02","02","feedback","test","null","","","na","","118","",""
"754","284889","HierDynmaqe1eo","sub26","02","02","rl","test","83","img/p_t_diag.png","2","83","color,shape,pattern","119","1",""
"null","285901","HierDynmaqe1eo","sub26","02","02","feedback","test","null","","","na","","119","",""
"516.2999999970198","286419","HierDynmaqe1eo","sub26","02","02","rl","test","76","img/o_d_diag.png","8","76","color,shape,pattern","120","1",""
"null","287429","HierDynmaqe1eo","sub26","02","02","feedback","test","null","","","na","","120","",""
"989.1999999955297","288421","HierDynmaqe1eo","sub26","02","02","rl","test","75","img/o_t_check.png","5","72","color,shape,pattern","121","0",""
"null","289430","HierDynmaqe1eo","sub26","02","02","feedback","test","null","","","na","","121","",""
"1287.6999999955297","290719","HierDynmaqe1eo","sub26","02","02","rl","test","83","img/p_t_diag.png","2","83","color,shape,pattern","122","1",""
"null","291733","HierDynmaqe1eo","sub26","02","02","feedback","test","null","","","na","","122","",""
"919.7999999970198","292655","HierDynmaqe1eo","sub26","02","02","rl","test","76","img/o_d_check.png","7","75","color,shape,pattern","123","0",""
"null","293669","HierDynmaqe1eo","sub26","02","02","feedback","test","null","","","na","","123","",""
"1714.0999999940395","295386","HierDynmaqe1eo","sub26","02","02","rl","test","68","img/p_d_check.png","3","68","color,shape,pattern","124","1",""
"null","296397","HierDynmaqe1eo","sub26","02","02","feedback","test","null","","","na","","124","",""
"1132.6000000014901","297532","HierDynmaqe1eo","sub26","02","02","rl","test","74","img/o_t_check.png","5","72","color,shape,pattern","125","0",""
"null","298541","HierDynmaqe1eo","sub26","02","02","feedback","test","null","","","na","","125","",""
"1576.1000000014901","300120","HierDynmaqe1eo","sub26","02","02","rl","test","70","img/p_d_diag.png","4","70","color,shape,pattern","126","1",""
"null","301133","HierDynmaqe1eo","sub26","02","02","feedback","test","null","","","na","","126","",""
"1290.5","302426","HierDynmaqe1eo","sub26","02","02","rl","test","74","img/o_t_diag.png","6","74","color,shape,pattern","127","1",""
"null","303438","HierDynmaqe1eo","sub26","02","02","feedback","test","null","","","na","","127","",""
"729.7000000029802","304170","HierDynmaqe1eo","sub26","02","02","rl","test","65","img/p_t_check.png","1","65","color,shape,pattern","128","1",""
"null","305174","HierDynmaqe1eo","sub26","02","02","feedback","test","null","","","na","","128","",""
"668.3999999985099","305844","HierDynmaqe1eo","sub26","02","02","rl","test","75","img/o_d_check.png","7","75","color,shape,pattern","129","1",""
"null","306851","HierDynmaqe1eo","sub26","02","02","feedback","test","null","","","na","","129","",""
"686.2999999970198","307540","HierDynmaqe1eo","sub26","02","02","rl","test","65","img/p_t_check.png","1","65","color,shape,pattern","130","1",""
"null","308546","HierDynmaqe1eo","sub26","02","02","feedback","test","null","","","na","","130","",""
"1134.1999999955297","309682","HierDynmaqe1eo","sub26","02","02","rl","test","70","img/p_d_diag.png","4","70","color,shape,pattern","131","1",""
"null","310694","HierDynmaqe1eo","sub26","02","02","feedback","test","null","","","na","","131","",""
"1956.6999999955297","312652","HierDynmaqe1eo","sub26","02","02","rl","test","74","img/o_t_diag.png","6","74","color,shape,pattern","132","1",""
"null","313661","HierDynmaqe1eo","sub26","02","02","feedback","test","null","","","na","","132","",""
"821.7999999970198","314485","HierDynmaqe1eo","sub26","02","02","rl","test","68","img/p_d_check.png","3","68","color,shape,pattern","133","1",""
"null","315493","HierDynmaqe1eo","sub26","02","02","feedback","test","null","","","na","","133","",""
"1110.1999999955297","316606","HierDynmaqe1eo","sub26","02","02","rl","test","76","img/o_d_diag.png","8","76","color,shape,pattern","134","1",""
"null","317610","HierDynmaqe1eo","sub26","02","02","feedback","test","null","","","na","","134","",""
"931.7999999970198","318544","HierDynmaqe1eo","sub26","02","02","rl","test","83","img/p_t_diag.png","2","83","color,shape,pattern","135","1",""
"null","319558","HierDynmaqe1eo","sub26","02","02","feedback","test","null","","","na","","135","",""
"863","320423","HierDynmaqe1eo","sub26","02","02","rl","test","72","img/o_t_check.png","5","72","color,shape,pattern","136","1",""
"null","321438","HierDynmaqe1eo","sub26","02","02","feedback","test","null","","","na","","136","",""
"649.1000000014901","322089","HierDynmaqe1eo","sub26","02","02","rl","test","72","img/o_t_check.png","5","72","color,shape,pattern","137","1",""
"null","323102","HierDynmaqe1eo","sub26","02","02","feedback","test","null","","","na","","137","",""
"720.2000000029802","323824","HierDynmaqe1eo","sub26","02","02","rl","test","83","img/p_t_diag.png","2","83","color,shape,pattern","138","1",""
"null","324833","HierDynmaqe1eo","sub26","02","02","feedback","test","null","","","na","","138","",""
"1747.7000000029802","326583","HierDynmaqe1eo","sub26","02","02","rl","test","74","img/o_t_diag.png","6","74","color,shape,pattern","139","1",""
"null","327594","HierDynmaqe1eo","sub26","02","02","feedback","test","null","","","na","","139","",""
"969.0999999940395","328565","HierDynmaqe1eo","sub26","02","02","rl","test","65","img/p_t_check.png","1","65","color,shape,pattern","140","1",""
"null","329569","HierDynmaqe1eo","sub26","02","02","feedback","test","null","","","na","","140","",""
"1280.2000000029802","330852","HierDynmaqe1eo","sub26","02","02","rl","test","68","img/p_d_check.png","3","68","color,shape,pattern","141","1",""
"null","331859","HierDynmaqe1eo","sub26","02","02","feedback","test","null","","","na","","141","",""
"1047.8999999985099","332910","HierDynmaqe1eo","sub26","02","02","rl","test","75","img/o_d_check.png","7","75","color,shape,pattern","142","1",""
"null","333914","HierDynmaqe1eo","sub26","02","02","feedback","test","null","","","na","","142","",""
"890.3000000044703","334807","HierDynmaqe1eo","sub26","02","02","rl","test","70","img/p_d_diag.png","4","70","color,shape,pattern","143","1",""
"null","335822","HierDynmaqe1eo","sub26","02","02","feedback","test","null","","","na","","143","",""
"1346.3000000044703","337170","HierDynmaqe1eo","sub26","02","02","rl","test","83","img/p_t_diag.png","2","83","color,shape,pattern","144","1",""
"null","338178","HierDynmaqe1eo","sub26","02","02","feedback","test","null","","","na","","144","",""
"899.5","339080","HierDynmaqe1eo","sub26","02","02","rl","test","70","img/p_d_diag.png","4","70","color,shape,pattern","145","1",""
"null","340094","HierDynmaqe1eo","sub26","02","02","feedback","test","null","","","na","","145","",""
"919.7999999970198","341015","HierDynmaqe1eo","sub26","02","02","rl","test","75","img/o_d_check.png","7","75","color,shape,pattern","146","1",""
"null","342030","HierDynmaqe1eo","sub26","02","02","feedback","test","null","","","na","","146","",""
"979.8999999985099","343011","HierDynmaqe1eo","sub26","02","02","rl","test","76","img/o_d_diag.png","8","76","color,shape,pattern","147","1",""
"null","344022","HierDynmaqe1eo","sub26","02","02","feedback","test","null","","","na","","147","",""
"546.3999999985099","344570","HierDynmaqe1eo","sub26","02","02","rl","test","76","img/o_d_diag.png","8","76","color,shape,pattern","148","1",""
"null","345578","HierDynmaqe1eo","sub26","02","02","feedback","test","null","","","na","","148","",""
"1266.8999999985099","346847","HierDynmaqe1eo","sub26","02","02","rl","test","72","img/o_t_check.png","5","72","color,shape,pattern","149","1",""
"null","347858","HierDynmaqe1eo","sub26","02","02","feedback","test","null","","","na","","149","",""
"721.6999999955297","348581","HierDynmaqe1eo","sub26","02","02","rl","test","65","img/p_t_check.png","1","65","color,shape,pattern","150","1",""
"null","349587","HierDynmaqe1eo","sub26","02","02","feedback","test","null","","","na","","150","",""
"1225.1999999955297","350814","HierDynmaqe1eo","sub26","02","02","rl","test","68","img/p_d_check.png","3","68","color,shape,pattern","151","1",""
"null","351822","HierDynmaqe1eo","sub26","02","02","feedback","test","null","","","na","","151","",""
"1162.6000000014901","352986","HierDynmaqe1eo","sub26","02","02","rl","test","75","img/o_d_check.png","7","75","color,shape,pattern","152","1",""
"null","353994","HierDynmaqe1eo","sub26","02","02","feedback","test","null","","","na","","152","",""
"1381.6000000014901","355377","HierDynmaqe1eo","sub26","02","02","rl","test","74","img/o_t_diag.png","6","74","color,shape,pattern","153","1",""
"null","356386","HierDynmaqe1eo","sub26","02","02","feedback","test","null","","","na","","153","",""
"853.8999999985099","357242","HierDynmaqe1eo","sub26","02","02","rl","test","68","img/p_d_check.png","3","68","color,shape,pattern","154","1",""
"null","358254","HierDynmaqe1eo","sub26","02","02","feedback","test","null","","","na","","154","",""
"1032","359288","HierDynmaqe1eo","sub26","02","02","rl","test","83","img/p_t_diag.png","2","83","color,shape,pattern","155","1",""
"null","360301","HierDynmaqe1eo","sub26","02","02","feedback","test","null","","","na","","155","",""
"1323.8999999985099","361627","HierDynmaqe1eo","sub26","02","02","rl","test","72","img/o_t_check.png","5","72","color,shape,pattern","156","1",""
"null","362638","HierDynmaqe1eo","sub26","02","02","feedback","test","null","","","na","","156","",""
"1114.2999999970198","363754","HierDynmaqe1eo","sub26","02","02","rl","test","74","img/o_t_diag.png","6","74","color,shape,pattern","157","1",""
"null","364762","HierDynmaqe1eo","sub26","02","02","feedback","test","null","","","na","","157","",""
"688.5","365452","HierDynmaqe1eo","sub26","02","02","rl","test","65","img/p_t_check.png","1","65","color,shape,pattern","158","1",""
"null","366460","HierDynmaqe1eo","sub26","02","02","feedback","test","null","","","na","","158","",""
"1259.5","367722","HierDynmaqe1eo","sub26","02","02","rl","test","68","img/p_d_check.png","3","68","color,shape,pattern","159","1",""
"null","368729","HierDynmaqe1eo","sub26","02","02","feedback","test","null","","","na","","159","",""
"793.3000000044703","369524","HierDynmaqe1eo","sub26","02","02","rl","test","70","img/p_d_diag.png","4","70","color,shape,pattern","160","1",""
"null","370530","HierDynmaqe1eo","sub26","02","02","feedback","test","null","","","na","","160","",""
"573.0999999940395","371105","HierDynmaqe1eo","sub26","02","02","rl","test","70","img/p_d_diag.png","4","70","color,shape,pattern","161","1",""
"null","372118","HierDynmaqe1eo","sub26","02","02","feedback","test","null","","","na","","161","",""
"1763.3999999985099","373883","HierDynmaqe1eo","sub26","02","02","rl","test","76","img/o_d_diag.png","8","76","color,shape,pattern","162","1",""
"null","374894","HierDynmaqe1eo","sub26","02","02","feedback","test","null","","","na","","162","",""
"583.0999999940395","375479","HierDynmaqe1eo","sub26","02","02","rl","test","65","img/p_t_check.png","1","65","color,shape,pattern","163","1",""
"null","376488","HierDynmaqe1eo","sub26","02","02","feedback","test","null","","","na","","163","",""
"819","377308","HierDynmaqe1eo","sub26","02","02","rl","test","83","img/p_t_diag.png","2","83","color,shape,pattern","164","1",""
"null","378317","HierDynmaqe1eo","sub26","02","02","feedback","test","null","","","na","","164","",""
"678.8000000044703","378998","HierDynmaqe1eo","sub26","02","02","rl","test","76","img/o_d_diag.png","8","76","color,shape,pattern","165","1",""
"null","380001","HierDynmaqe1eo","sub26","02","02","feedback","test","null","","","na","","165","",""
"1179.4000000059605","381183","HierDynmaqe1eo","sub26","02","02","rl","test","74","img/o_t_diag.png","6","74","color,shape,pattern","166","1",""
"null","382197","HierDynmaqe1eo","sub26","02","02","feedback","test","null","","","na","","166","",""
"640.1000000014901","382839","HierDynmaqe1eo","sub26","02","02","rl","test","75","img/o_d_check.png","7","75","color,shape,pattern","167","1",""
"null","383854","HierDynmaqe1eo","sub26","02","02","feedback","test","null","","","na","","167","",""
"787.3000000044703","384643","HierDynmaqe1eo","sub26","02","02","rl","test","72","img/o_t_check.png","5","72","color,shape,pattern","168","1",""
"null","385650","HierDynmaqe1eo","sub26","02","02","feedback","test","null","","","na","","168","",""
"717.8000000044703","386369","HierDynmaqe1eo","sub26","02","02","rl","test","75","img/o_d_check.png","7","75","color,shape,pattern","169","1",""
"null","387377","HierDynmaqe1eo","sub26","02","02","feedback","test","null","","","na","","169","",""
"650","388029","HierDynmaqe1eo","sub26","02","02","rl","test","65","img/p_t_check.png","1","65","color,shape,pattern","170","1",""
"null","389036","HierDynmaqe1eo","sub26","02","02","feedback","test","null","","","na","","170","",""
"1615","390653","HierDynmaqe1eo","sub26","02","02","rl","test","76","img/o_d_diag.png","8","76","color,shape,pattern","171","1",""
"null","391658","HierDynmaqe1eo","sub26","02","02","feedback","test","null","","","na","","171","",""
"914.7999999970198","392574","HierDynmaqe1eo","sub26","02","02","rl","test","70","img/p_d_diag.png","4","70","color,shape,pattern","172","1",""
"null","393577","HierDynmaqe1eo","sub26","02","02","feedback","test","null","","","na","","172","",""
"993.6999999955297","394572","HierDynmaqe1eo","sub26","02","02","rl","test","83","img/p_t_diag.png","2","83","color,shape,pattern","173","1",""
"null","395574","HierDynmaqe1eo","sub26","02","02","feedback","test","null","","","na","","173","",""
"1004.6000000014901","396580","HierDynmaqe1eo","sub26","02","02","rl","test","68","img/p_d_check.png","3","68","color,shape,pattern","174","1",""
"null","397585","HierDynmaqe1eo","sub26","02","02","feedback","test","null","","","na","","174","",""
"1197.3999999985099","398784","HierDynmaqe1eo","sub26","02","02","rl","test","72","img/o_t_check.png","5","72","color,shape,pattern","175","1",""
"null","399797","HierDynmaqe1eo","sub26","02","02","feedback","test","null","","","na","","175","",""
"1372.2000000029802","401171","HierDynmaqe1eo","sub26","02","02","rl","test","68","img/p_d_check.png","3","68","color,shape,pattern","176","1",""
"null","402177","HierDynmaqe1eo","sub26","02","02","feedback","test","null","","","na","","176","",""
"1166.7000000029802","403345","HierDynmaqe1eo","sub26","02","02","rl","test","83","img/p_t_diag.png","2","83","color,shape,pattern","177","1",""
"null","404353","HierDynmaqe1eo","sub26","02","02","feedback","test","null","","","na","","177","",""
"1652","406007","HierDynmaqe1eo","sub26","02","02","rl","test","65","img/p_t_check.png","1","65","color,shape,pattern","178","1",""
"null","407022","HierDynmaqe1eo","sub26","02","02","feedback","test","null","","","na","","178","",""
"1239.6000000014901","408263","HierDynmaqe1eo","sub26","02","02","rl","test","74","img/o_t_diag.png","6","74","color,shape,pattern","179","1",""
"null","409278","HierDynmaqe1eo","sub26","02","02","feedback","test","null","","","na","","179","",""
"593.5","409873","HierDynmaqe1eo","sub26","02","02","rl","test","74","img/o_t_diag.png","6","74","color,shape,pattern","180","1",""
"null","410883","HierDynmaqe1eo","sub26","02","02","feedback","test","null","","","na","","180","",""
"917.8000000044703","411803","HierDynmaqe1eo","sub26","02","02","rl","test","76","img/o_d_diag.png","8","76","color,shape,pattern","181","1",""
"null","412810","HierDynmaqe1eo","sub26","02","02","feedback","test","null","","","na","","181","",""
"707.8000000044703","413520","HierDynmaqe1eo","sub26","02","02","rl","test","75","img/o_d_check.png","7","75","color,shape,pattern","182","1",""
"null","414530","HierDynmaqe1eo","sub26","02","02","feedback","test","null","","","na","","182","",""
"692.2999999970198","415224","HierDynmaqe1eo","sub26","02","02","rl","test","72","img/o_t_check.png","5","72","color,shape,pattern","183","1",""
"null","416238","HierDynmaqe1eo","sub26","02","02","feedback","test","null","","","na","","183","",""
"892.2000000029802","417132","HierDynmaqe1eo","sub26","02","02","rl","test","70","img/p_d_diag.png","4","70","color,shape,pattern","184","1",""
"null","418142","HierDynmaqe1eo","sub26","02","02","feedback","test","null","","","na","","184","",""
"848.3999999985099","418992","HierDynmaqe1eo","sub26","02","02","rl","test","76","img/o_d_diag.png","8","76","color,shape,pattern","185","1",""
"null","420006","HierDynmaqe1eo","sub26","02","02","feedback","test","null","","","na","","185","",""
"1159.2999999970198","421167","HierDynmaqe1eo","sub26","02","02","rl","test","70","img/p_d_diag.png","4","70","color,shape,pattern","186","1",""
"null","422182","HierDynmaqe1eo","sub26","02","02","feedback","test","null","","","na","","186","",""
"741.8999999985099","422925","HierDynmaqe1eo","sub26","02","02","rl","test","68","img/p_d_check.png","3","68","color,shape,pattern","187","1",""
"null","423931","HierDynmaqe1eo","sub26","02","02","feedback","test","null","","","na","","187","",""
"851.0999999940395","424784","HierDynmaqe1eo","sub26","02","02","rl","test","72","img/o_t_check.png","5","72","color,shape,pattern","188","1",""
"null","425797","HierDynmaqe1eo","sub26","02","02","feedback","test","null","","","na","","188","",""
"924.8000000044703","426724","HierDynmaqe1eo","sub26","02","02","rl","test","70","img/p_d_diag.png","4","70","color,shape,pattern","189","1",""
"null","427734","HierDynmaqe1eo","sub26","02","02","feedback","test","null","","","na","","189","",""
"1705.8999999985099","429442","HierDynmaqe1eo","sub26","02","02","rl","test","74","img/o_t_diag.png","6","74","color,shape,pattern","190","1",""
"null","430450","HierDynmaqe1eo","sub26","02","02","feedback","test","null","","","na","","190","",""
"1264.6000000014901","431717","HierDynmaqe1eo","sub26","02","02","rl","test","83","img/p_t_diag.png","2","83","color,shape,pattern","191","1",""
"null","432722","HierDynmaqe1eo","sub26","02","02","feedback","test","null","","","na","","191","",""
"1398.8999999985099","434123","HierDynmaqe1eo","sub26","02","02","rl","test","83","img/p_t_diag.png","2","83","color,shape,pattern","192","1",""
"null","435134","HierDynmaqe1eo","sub26","02","02","feedback","test","null","","","na","","192","",""
"849.7999999970198","435986","HierDynmaqe1eo","sub26","02","02","rl","test","65","img/p_t_check.png","1","65","color,shape,pattern","193","1",""
"null","436998","HierDynmaqe1eo","sub26","02","02","feedback","test","null","","","na","","193","",""
"1719.3999999985099","438720","HierDynmaqe1eo","sub26","02","02","rl","test","75","img/o_t_check.png","5","72","color,shape,pattern","194","0",""
"null","439729","HierDynmaqe1eo","sub26","02","02","feedback","test","null","","","na","","194","",""
"804","440536","HierDynmaqe1eo","sub26","02","02","rl","test","75","img/o_d_check.png","7","75","color,shape,pattern","195","1",""
"null","441545","HierDynmaqe1eo","sub26","02","02","feedback","test","null","","","na","","195","",""
"665.2000000029802","442212","HierDynmaqe1eo","sub26","02","02","rl","test","76","img/o_d_diag.png","8","76","color,shape,pattern","196","1",""
"null","443218","HierDynmaqe1eo","sub26","02","02","feedback","test","null","","","na","","196","",""
"555.5","443776","HierDynmaqe1eo","sub26","02","02","rl","test","65","img/p_t_check.png","1","65","color,shape,pattern","197","1",""
"null","444787","HierDynmaqe1eo","sub26","02","02","feedback","test","null","","","na","","197","",""
"782","445572","HierDynmaqe1eo","sub26","02","02","rl","test","74","img/o_t_diag.png","6","74","color,shape,pattern","198","1",""
"null","446578","HierDynmaqe1eo","sub26","02","02","feedback","test","null","","","na","","198","",""
"1081.7000000029802","447662","HierDynmaqe1eo","sub26","02","02","rl","test","68","img/p_d_check.png","3","68","color,shape,pattern","199","1",""
"null","448670","HierDynmaqe1eo","sub26","02","02","feedback","test","null","","","na","","199","",""
"802.3999999985099","449474","HierDynmaqe1eo","sub26","02","02","rl","test","75","img/o_d_check.png","7","75","color,shape,pattern","200","1",""
"null","450482","HierDynmaqe1eo","sub26","02","02","feedback","test","null","","","na","","200","",""
"532.2999999970198","451017","HierDynmaqe1eo","sub26","02","02","rl","test","75","img/o_d_check.png","7","75","color,shape,pattern","201","1",""
"null","452030","HierDynmaqe1eo","sub26","02","02","feedback","test","null","","","na","","201","",""
"1432.6999999955297","453465","HierDynmaqe1eo","sub26","02","02","rl","test","68","img/p_d_check.png","3","68","color,shape,pattern","202","1",""
"null","454474","HierDynmaqe1eo","sub26","02","02","feedback","test","null","","","na","","202","",""
"787.7000000029802","455264","HierDynmaqe1eo","sub26","02","02","rl","test","70","img/p_d_diag.png","4","70","color,shape,pattern","203","1",""
"null","456278","HierDynmaqe1eo","sub26","02","02","feedback","test","null","","","na","","203","",""
"699.6999999955297","456980","HierDynmaqe1eo","sub26","02","02","rl","test","65","img/p_t_check.png","1","65","color,shape,pattern","204","1",""
"null","457987","HierDynmaqe1eo","sub26","02","02","feedback","test","null","","","na","","204","",""
"1163.8000000044703","459153","HierDynmaqe1eo","sub26","02","02","rl","test","76","img/o_d_diag.png","8","76","color,shape,pattern","205","1",""
"null","460166","HierDynmaqe1eo","sub26","02","02","feedback","test","null","","","na","","205","",""
"911.3000000044703","461079","HierDynmaqe1eo","sub26","02","02","rl","test","74","img/o_t_diag.png","6","74","color,shape,pattern","206","1",""
"null","462094","HierDynmaqe1eo","sub26","02","02","feedback","test","null","","","na","","206","",""
"1281.8999999985099","463378","HierDynmaqe1eo","sub26","02","02","rl","test","83","img/p_t_diag.png","2","83","color,shape,pattern","207","1",""
"null","464387","HierDynmaqe1eo","sub26","02","02","feedback","test","null","","","na","","207","",""
"902.6000000014901","465292","HierDynmaqe1eo","sub26","02","02","rl","test","72","img/o_t_check.png","5","72","color,shape,pattern","208","1",""
"null","466298","HierDynmaqe1eo","sub26","02","02","feedback","test","null","","","na","","208","",""
"765.7000000029802","467066","HierDynmaqe1eo","sub26","02","02","rl","test","70","img/p_d_diag.png","4","70","color,shape,pattern","209","1",""
"null","468073","HierDynmaqe1eo","sub26","02","02","feedback","test","null","","","na","","209","",""
"693.4000000059605","468769","HierDynmaqe1eo","sub26","02","02","rl","test","72","img/o_t_check.png","5","72","color,shape,pattern","210","1",""
"null","469777","HierDynmaqe1eo","sub26","02","02","feedback","test","null","","","na","","210","",""
"642","470421","HierDynmaqe1eo","sub26","02","02","rl","test","65","img/p_t_check.png","1","65","color,shape,pattern","211","1",""
"null","471426","HierDynmaqe1eo","sub26","02","02","feedback","test","null","","","na","","211","",""
"675.8999999985099","472104","HierDynmaqe1eo","sub26","02","02","rl","test","74","img/o_t_diag.png","6","74","color,shape,pattern","212","1",""
"null","473118","HierDynmaqe1eo","sub26","02","02","feedback","test","null","","","na","","212","",""
"777.8999999985099","473898","HierDynmaqe1eo","sub26","02","02","rl","test","68","img/p_d_check.png","3","68","color,shape,pattern","213","1",""
"null","474910","HierDynmaqe1eo","sub26","02","02","feedback","test","null","","","na","","213","",""
"353.19999999552965","475265","HierDynmaqe1eo","sub26","02","02","rl","test","75","img/o_d_check.png","7","75","color,shape,pattern","214","1",""
"null","476274","HierDynmaqe1eo","sub26","02","02","feedback","test","null","","","na","","214","",""
"826.1000000014901","477103","HierDynmaqe1eo","sub26","02","02","rl","test","76","img/o_d_diag.png","8","76","color,shape,pattern","215","1",""
"null","478110","HierDynmaqe1eo","sub26","02","02","feedback","test","null","","","na","","215","",""
"698.9000000059605","478811","HierDynmaqe1eo","sub26","02","02","rl","test","83","img/p_t_diag.png","2","83","color,shape,pattern","216","1",""
"null","479822","HierDynmaqe1eo","sub26","02","02","feedback","test","null","","","na","","216","",""
"784.7000000029802","480609","HierDynmaqe1eo","sub26","02","02","rl","test","68","img/p_d_check.png","3","68","color,shape,pattern","217","1",""
"null","481617","HierDynmaqe1eo","sub26","02","02","feedback","test","null","","","na","","217","",""
"1241.3999999985099","482861","HierDynmaqe1eo","sub26","02","02","rl","test","83","img/p_t_diag.png","2","83","color,shape,pattern","218","1",""
"null","483868","HierDynmaqe1eo","sub26","02","02","feedback","test","null","","","na","","218","",""
"1913.6999999955297","485784","HierDynmaqe1eo","sub26","02","02","rl","test","76","img/o_d_check.png","7","75","color,shape,pattern","219","0",""
"null","486797","HierDynmaqe1eo","sub26","02","02","feedback","test","null","","","na","","219","",""
"575.2000000029802","487375","HierDynmaqe1eo","sub26","02","02","rl","test","75","img/o_d_check.png","7","75","color,shape,pattern","220","1",""
"null","488387","HierDynmaqe1eo","sub26","02","02","feedback","test","null","","","na","","220","",""
"1063.8000000044703","489453","HierDynmaqe1eo","sub26","02","02","rl","test","70","img/p_d_diag.png","4","70","color,shape,pattern","221","1",""
"null","490458","HierDynmaqe1eo","sub26","02","02","feedback","test","null","","","na","","221","",""
"1682.4000000059605","492142","HierDynmaqe1eo","sub26","02","02","rl","test","76","img/o_d_diag.png","8","76","color,shape,pattern","222","1",""
"null","493150","HierDynmaqe1eo","sub26","02","02","feedback","test","null","","","na","","222","",""
"543.7000000029802","493696","HierDynmaqe1eo","sub26","02","02","rl","test","72","img/o_t_check.png","5","72","color,shape,pattern","223","1",""
"null","494710","HierDynmaqe1eo","sub26","02","02","feedback","test","null","","","na","","223","",""
"760.4000000059605","495473","HierDynmaqe1eo","sub26","02","02","rl","test","70","img/p_d_diag.png","4","70","color,shape,pattern","224","1",""
"null","496486","HierDynmaqe1eo","sub26","02","02","feedback","test","null","","","na","","224","",""
"1618.8999999985099","498107","HierDynmaqe1eo","sub26","02","02","rl","test","65","img/p_t_check.png","1","65","color,shape,pattern","225","1",""
"null","499118","HierDynmaqe1eo","sub26","02","02","feedback","test","null","","","na","","225","",""
"935.5","500056","HierDynmaqe1eo","sub26","02","02","rl","test","76","img/o_d_diag.png","8","76","color,shape,pattern","226","1",""
"null","501066","HierDynmaqe1eo","sub26","02","02","feedback","test","null","","","na","","226","",""
"1459.2000000029802","502527","HierDynmaqe1eo","sub26","02","02","rl","test","74","img/o_t_diag.png","6","74","color,shape,pattern","227","1",""
"null","503542","HierDynmaqe1eo","sub26","02","02","feedback","test","null","","","na","","227","",""
"702.5","504247","HierDynmaqe1eo","sub26","02","02","rl","test","65","img/p_t_check.png","1","65","color,shape,pattern","228","1",""
"null","505262","HierDynmaqe1eo","sub26","02","02","feedback","test","null","","","na","","228","",""
"1698.4000000059605","506963","HierDynmaqe1eo","sub26","02","02","rl","test","68","img/p_d_check.png","3","68","color,shape,pattern","229","1",""
"null","507970","HierDynmaqe1eo","sub26","02","02","feedback","test","null","","","na","","229","",""
"737.7999999970198","508710","HierDynmaqe1eo","sub26","02","02","rl","test","68","img/p_d_check.png","3","68","color,shape,pattern","230","1",""
"null","509718","HierDynmaqe1eo","sub26","02","02","feedback","test","null","","","na","","230","",""
"1311.2000000029802","511031","HierDynmaqe1eo","sub26","02","02","rl","test","72","img/o_t_check.png","5","72","color,shape,pattern","231","1",""
"null","512046","HierDynmaqe1eo","sub26","02","02","feedback","test","null","","","na","","231","",""
"1767.3999999985099","513816","HierDynmaqe1eo","sub26","02","02","rl","test","74","img/o_t_diag.png","6","74","color,shape,pattern","232","1",""
"null","514826","HierDynmaqe1eo","sub26","02","02","feedback","test","null","","","na","","232","",""
"1031.2000000029802","515859","HierDynmaqe1eo","sub26","02","02","rl","test","68","img/p_t_diag.png","2","83","color,shape,pattern","233","0",""
"null","516866","HierDynmaqe1eo","sub26","02","02","feedback","test","null","","","na","","233","",""
"1048.2000000029802","517916","HierDynmaqe1eo","sub26","02","02","rl","test","70","img/p_d_diag.png","4","70","color,shape,pattern","234","1",""
"null","518926","HierDynmaqe1eo","sub26","02","02","feedback","test","null","","","na","","234","",""
"1247.3000000044703","520175","HierDynmaqe1eo","sub26","02","02","rl","test","75","img/o_d_check.png","7","75","color,shape,pattern","235","1",""
"null","521188","HierDynmaqe1eo","sub26","02","02","feedback","test","null","","","na","","235","",""
"1068.1000000014901","522258","HierDynmaqe1eo","sub26","02","02","rl","test","74","img/o_t_diag.png","6","74","color,shape,pattern","236","1",""
"null","523267","HierDynmaqe1eo","sub26","02","02","feedback","test","null","","","na","","236","",""
"1120.3999999985099","524389","HierDynmaqe1eo","sub26","02","02","rl","test","72","img/o_t_check.png","5","72","color,shape,pattern","237","1",""
"null","525394","HierDynmaqe1eo","sub26","02","02","feedback","test","null","","","na","","237","",""
"914.7000000029802","526311","HierDynmaqe1eo","sub26","02","02","rl","test","74","img/o_t_diag.png","6","74","color,shape,pattern","238","1",""
"null","527326","HierDynmaqe1eo","sub26","02","02","feedback","test","null","","","na","","238","",""
"711.8000000044703","528040","HierDynmaqe1eo","sub26","02","02","rl","test","65","img/p_t_check.png","1","65","color,shape,pattern","239","1",""
"null","529053","HierDynmaqe1eo","sub26","02","02","feedback","test","null","","","na","","239","",""
"1077","530132","HierDynmaqe1eo","sub26","02","02","rl","test","76","img/o_d_diag.png","8","76","color,shape,pattern","240","1",""
"null","531142","HierDynmaqe1eo","sub26","02","02","feedback","test","null","","","na","","240","",""
"1313.5","532457","HierDynmaqe1eo","sub26","02","02","rl","test","83","img/p_t_diag.png","2","83","color,shape,pattern","241","1",""
"null","533469","HierDynmaqe1eo","sub26","02","02","feedback","test","null","","","na","","241","",""
"537.3999999985099","534009","HierDynmaqe1eo","sub26","02","02","rl","test","83","img/p_t_diag.png","2","83","color,shape,pattern","242","1",""
"null","535017","HierDynmaqe1eo","sub26","02","02","feedback","test","null","","","na","","242","",""
"813","535832","HierDynmaqe1eo","sub26","02","02","rl","test","76","img/o_d_diag.png","8","76","color,shape,pattern","243","1",""
"null","536846","HierDynmaqe1eo","sub26","02","02","feedback","test","null","","","na","","243","",""
"1378","538226","HierDynmaqe1eo","sub26","02","02","rl","test","75","img/o_d_check.png","7","75","color,shape,pattern","244","1",""
"null","539238","HierDynmaqe1eo","sub26","02","02","feedback","test","null","","","na","","244","",""
"1490.7999999970198","540731","HierDynmaqe1eo","sub26","02","02","rl","test","68","img/p_d_check.png","3","68","color,shape,pattern","245","1",""
"null","541737","HierDynmaqe1eo","sub26","02","02","feedback","test","null","","","na","","245","",""
"976.6999999955297","542716","HierDynmaqe1eo","sub26","02","02","rl","test","65","img/p_t_check.png","1","65","color,shape,pattern","246","1",""
"null","543726","HierDynmaqe1eo","sub26","02","02","feedback","test","null","","","na","","246","",""
"1146.6999999955297","544875","HierDynmaqe1eo","sub26","02","02","rl","test","70","img/p_d_diag.png","4","70","color,shape,pattern","247","1",""
"null","545882","HierDynmaqe1eo","sub26","02","02","feedback","test","null","","","na","","247","",""
"816.3999999985099","546700","HierDynmaqe1eo","sub26","02","02","rl","test","72","img/o_t_check.png","5","72","color,shape,pattern","248","1",""
"null","547710","HierDynmaqe1eo","sub26","02","02","feedback","test","null","","","na","","248","",""
"5606","553322","HierDynmaqe1eo","sub26","02","02","","","","","","","","","","{""Q0"":""7""}"
"26676.70000000298","580004","HierDynmaqe1eo","sub26","02","02","","","","","","","","","","{""Q0"":""I clicked every key for each picture first, then used method of elimination to deduce which one corresponded with what shape. ""}"
"8712","588718","HierDynmaqe1eo","sub26","02","02","","","","","","","","","",""
