"rt","time_elapsed","subject","subID","group","day","trialType","phase","key_press","stim","stimNum","corrresp","hierarchy","trialNum","corr","responses"
"1133.2000000476837","1135","HierDypk984axo","sub17","05","04","","","","","","","","","",""
"","3324","HierDypk984axo","sub17","05","04","fullscreen","","","","","","","","",""
"27717.80000001192","31041","HierDypk984axo","sub17","05","04","","prac","","","","","","","",""
"752.3000000119209","31796","HierDypk984axo","sub17","05","04","","","32","","","","","","",""
"1587.699999988079","33385","HierDypk984axo","sub17","05","04","","prac","","","","","","","",""
"931.6999999880791","34318","HierDypk984axo","sub17","05","04","rl","test","83","img/p_c_diag.png","2","83","pattern,shape,color","1","1",""
"null","35330","HierDypk984axo","sub17","05","04","feedback","test","null","","","na","","1","",""
"989.6999999880791","36322","HierDypk984axo","sub17","05","04","rl","test","72","img/b_c_dots.png","5","72","pattern,shape,color","2","1",""
"null","37331","HierDypk984axo","sub17","05","04","feedback","test","null","","","na","","2","",""
"1167.699999988079","38501","HierDypk984axo","sub17","05","04","rl","test","68","img/b_d_diag.png","3","68","pattern,shape,color","3","1",""
"null","39516","HierDypk984axo","sub17","05","04","feedback","test","null","","","na","","3","",""
"1089.5","40606","HierDypk984axo","sub17","05","04","rl","test","74","img/p_c_dots.png","6","74","pattern,shape,color","4","1",""
"null","41616","HierDypk984axo","sub17","05","04","feedback","test","null","","","na","","4","",""
"808.8999999761581","42427","HierDypk984axo","sub17","05","04","rl","test","83","img/b_c_diag.png","1","65","pattern,shape,color","5","0",""
"null","43430","HierDypk984axo","sub17","05","04","feedback","test","null","","","na","","5","",""
"874.3999999761581","44306","HierDypk984axo","sub17","05","04","rl","test","70","img/p_d_diag.png","4","70","pattern,shape,color","6","1",""
"null","45313","HierDypk984axo","sub17","05","04","feedback","test","null","","","na","","6","",""
"752","46067","HierDypk984axo","sub17","05","04","rl","test","76","img/p_d_dots.png","8","76","pattern,shape,color","7","1",""
"null","47073","HierDypk984axo","sub17","05","04","feedback","test","null","","","na","","7","",""
"494.19999998807907","47569","HierDypk984axo","sub17","05","04","rl","test","75","img/b_d_dots.png","7","75","pattern,shape,color","8","1",""
"null","48575","HierDypk984axo","sub17","05","04","feedback","test","null","","","na","","8","",""
"1376.699999988079","49953","HierDypk984axo","sub17","05","04","rl","test","65","img/b_c_diag.png","1","65","pattern,shape,color","9","1",""
"null","50958","HierDypk984axo","sub17","05","04","feedback","test","null","","","na","","9","",""
"817.6999999880791","51777","HierDypk984axo","sub17","05","04","rl","test","75","img/p_d_dots.png","8","76","pattern,shape,color","10","0",""
"null","52784","HierDypk984axo","sub17","05","04","feedback","test","null","","","na","","10","",""
"939.6000000238419","53725","HierDypk984axo","sub17","05","04","rl","test","72","img/b_c_dots.png","5","72","pattern,shape,color","11","1",""
"null","54735","HierDypk984axo","sub17","05","04","feedback","test","null","","","na","","11","",""
"977.8999999761581","55714","HierDypk984axo","sub17","05","04","rl","test","74","img/p_c_dots.png","6","74","pattern,shape,color","12","1",""
"null","56719","HierDypk984axo","sub17","05","04","feedback","test","null","","","na","","12","",""
"573.1000000238419","57293","HierDypk984axo","sub17","05","04","rl","test","75","img/b_d_dots.png","7","75","pattern,shape,color","13","1",""
"null","58305","HierDypk984axo","sub17","05","04","feedback","test","null","","","na","","13","",""
"838.1999999880791","59144","HierDypk984axo","sub17","05","04","rl","test","83","img/p_c_diag.png","2","83","pattern,shape,color","14","1",""
"null","60150","HierDypk984axo","sub17","05","04","feedback","test","null","","","na","","14","",""
"752.6999999880791","60904","HierDypk984axo","sub17","05","04","rl","test","75","img/b_d_dots.png","7","75","pattern,shape,color","15","1",""
"null","61913","HierDypk984axo","sub17","05","04","feedback","test","null","","","na","","15","",""
"979.5","62894","HierDypk984axo","sub17","05","04","rl","test","76","img/p_d_diag.png","4","70","pattern,shape,color","16","0",""
"null","63904","HierDypk984axo","sub17","05","04","feedback","test","null","","","na","","16","",""
"893.8999999761581","64799","HierDypk984axo","sub17","05","04","rl","test","68","img/b_d_diag.png","3","68","pattern,shape,color","17","1",""
"null","65805","HierDypk984axo","sub17","05","04","feedback","test","null","","","na","","17","",""
"539.2000000476837","66346","HierDypk984axo","sub17","05","04","rl","test","68","img/b_d_diag.png","3","68","pattern,shape,color","18","1",""
"null","67352","HierDypk984axo","sub17","05","04","feedback","test","null","","","na","","18","",""
"463.39999997615814","67817","HierDypk984axo","sub17","05","04","rl","test","70","img/p_d_diag.png","4","70","pattern,shape,color","19","1",""
"null","68823","HierDypk984axo","sub17","05","04","feedback","test","null","","","na","","19","",""
"783","69607","HierDypk984axo","sub17","05","04","rl","test","65","img/b_c_diag.png","1","65","pattern,shape,color","20","1",""
"null","70613","HierDypk984axo","sub17","05","04","feedback","test","null","","","na","","20","",""
"900.8000000119209","71516","HierDypk984axo","sub17","05","04","rl","test","76","img/p_d_dots.png","8","76","pattern,shape,color","21","1",""
"null","72526","HierDypk984axo","sub17","05","04","feedback","test","null","","","na","","21","",""
"831.8999999761581","73359","HierDypk984axo","sub17","05","04","rl","test","65","img/b_c_diag.png","1","65","pattern,shape,color","22","1",""
"null","74366","HierDypk984axo","sub17","05","04","feedback","test","null","","","na","","22","",""
"914.3000000119209","75281","HierDypk984axo","sub17","05","04","rl","test","72","img/b_c_dots.png","5","72","pattern,shape,color","23","1",""
"null","76285","HierDypk984axo","sub17","05","04","feedback","test","null","","","na","","23","",""
"465.7999999523163","76752","HierDypk984axo","sub17","05","04","rl","test","72","img/b_c_dots.png","5","72","pattern,shape,color","24","1",""
"null","77756","HierDypk984axo","sub17","05","04","feedback","test","null","","","na","","24","",""
"515.6000000238419","78272","HierDypk984axo","sub17","05","04","rl","test","74","img/p_c_dots.png","6","74","pattern,shape,color","25","1",""
"null","79276","HierDypk984axo","sub17","05","04","feedback","test","null","","","na","","25","",""
"738.5999999642372","80016","HierDypk984axo","sub17","05","04","rl","test","83","img/p_c_diag.png","2","83","pattern,shape,color","26","1",""
"null","81022","HierDypk984axo","sub17","05","04","feedback","test","null","","","na","","26","",""
"957.1000000238419","81980","HierDypk984axo","sub17","05","04","rl","test","76","img/p_d_dots.png","8","76","pattern,shape,color","27","1",""
"null","82989","HierDypk984axo","sub17","05","04","feedback","test","null","","","na","","27","",""
"976","83967","HierDypk984axo","sub17","05","04","rl","test","75","img/b_d_diag.png","3","68","pattern,shape,color","28","0",""
"null","84976","HierDypk984axo","sub17","05","04","feedback","test","null","","","na","","28","",""
"1097.9000000357628","86075","HierDypk984axo","sub17","05","04","rl","test","74","img/p_c_dots.png","6","74","pattern,shape,color","29","1",""
"null","87087","HierDypk984axo","sub17","05","04","feedback","test","null","","","na","","29","",""
"550.1999999880791","87638","HierDypk984axo","sub17","05","04","rl","test","75","img/b_d_dots.png","7","75","pattern,shape,color","30","1",""
"null","88646","HierDypk984axo","sub17","05","04","feedback","test","null","","","na","","30","",""
"631.8999999761581","89279","HierDypk984axo","sub17","05","04","rl","test","83","img/p_c_diag.png","2","83","pattern,shape,color","31","1",""
"null","90284","HierDypk984axo","sub17","05","04","feedback","test","null","","","na","","31","",""
"781.5","91066","HierDypk984axo","sub17","05","04","rl","test","70","img/p_d_diag.png","4","70","pattern,shape,color","32","1",""
"null","92080","HierDypk984axo","sub17","05","04","feedback","test","null","","","na","","32","",""
"462.69999998807907","92544","HierDypk984axo","sub17","05","04","rl","test","70","img/p_d_diag.png","4","70","pattern,shape,color","33","1",""
"null","93551","HierDypk984axo","sub17","05","04","feedback","test","null","","","na","","33","",""
"552.6000000238419","94105","HierDypk984axo","sub17","05","04","rl","test","68","img/b_d_diag.png","3","68","pattern,shape,color","34","1",""
"null","95116","HierDypk984axo","sub17","05","04","feedback","test","null","","","na","","34","",""
"941.5","96059","HierDypk984axo","sub17","05","04","rl","test","72","img/b_c_dots.png","5","72","pattern,shape,color","35","1",""
"null","97068","HierDypk984axo","sub17","05","04","feedback","test","null","","","na","","35","",""
"763.4000000357628","97833","HierDypk984axo","sub17","05","04","rl","test","65","img/b_c_diag.png","1","65","pattern,shape,color","36","1",""
"null","98839","HierDypk984axo","sub17","05","04","feedback","test","null","","","na","","36","",""
"532","99373","HierDypk984axo","sub17","05","04","rl","test","74","img/p_c_dots.png","6","74","pattern,shape,color","37","1",""
"null","100380","HierDypk984axo","sub17","05","04","feedback","test","null","","","na","","37","",""
"734.5999999642372","101117","HierDypk984axo","sub17","05","04","rl","test","83","img/p_c_diag.png","2","83","pattern,shape,color","38","1",""
"null","102123","HierDypk984axo","sub17","05","04","feedback","test","null","","","na","","38","",""
"895.3999999761581","103019","HierDypk984axo","sub17","05","04","rl","test","75","img/b_d_dots.png","7","75","pattern,shape,color","39","1",""
"null","104027","HierDypk984axo","sub17","05","04","feedback","test","null","","","na","","39","",""
"848.3999999761581","104877","HierDypk984axo","sub17","05","04","rl","test","74","img/p_c_dots.png","6","74","pattern,shape,color","40","1",""
"null","105883","HierDypk984axo","sub17","05","04","feedback","test","null","","","na","","40","",""
"561.3000000119209","106446","HierDypk984axo","sub17","05","04","rl","test","76","img/p_d_dots.png","8","76","pattern,shape,color","41","1",""
"null","107451","HierDypk984axo","sub17","05","04","feedback","test","null","","","na","","41","",""
"885.6000000238419","108338","HierDypk984axo","sub17","05","04","rl","test","68","img/p_c_diag.png","2","83","pattern,shape,color","42","0",""
"null","109348","HierDypk984axo","sub17","05","04","feedback","test","null","","","na","","42","",""
"640.7999999523163","109990","HierDypk984axo","sub17","05","04","rl","test","70","img/p_d_dots.png","8","76","pattern,shape,color","43","0",""
"null","110994","HierDypk984axo","sub17","05","04","feedback","test","null","","","na","","43","",""
"613","111608","HierDypk984axo","sub17","05","04","rl","test","70","img/p_d_diag.png","4","70","pattern,shape,color","44","1",""
"null","112610","HierDypk984axo","sub17","05","04","feedback","test","null","","","na","","44","",""
"755.3000000119209","113366","HierDypk984axo","sub17","05","04","rl","test","75","img/b_d_dots.png","7","75","pattern,shape,color","45","1",""
"null","114373","HierDypk984axo","sub17","05","04","feedback","test","null","","","na","","45","",""
"774.4000000357628","115148","HierDypk984axo","sub17","05","04","rl","test","83","img/b_c_diag.png","1","65","pattern,shape,color","46","0",""
"null","116154","HierDypk984axo","sub17","05","04","feedback","test","null","","","na","","46","",""
"1034.800000011921","117190","HierDypk984axo","sub17","05","04","rl","test","72","img/b_c_dots.png","5","72","pattern,shape,color","47","1",""
"null","118197","HierDypk984axo","sub17","05","04","feedback","test","null","","","na","","47","",""
"1663.3999999761581","119862","HierDypk984axo","sub17","05","04","rl","test","68","img/b_d_diag.png","3","68","pattern,shape,color","48","1",""
"null","120869","HierDypk984axo","sub17","05","04","feedback","test","null","","","na","","48","",""
"855.8000000119209","121726","HierDypk984axo","sub17","05","04","rl","test","72","img/b_c_dots.png","5","72","pattern,shape,color","49","1",""
"null","122730","HierDypk984axo","sub17","05","04","feedback","test","null","","","na","","49","",""
"1223.4000000357628","123955","HierDypk984axo","sub17","05","04","rl","test","65","img/b_c_diag.png","1","65","pattern,shape,color","50","1",""
"null","124961","HierDypk984axo","sub17","05","04","feedback","test","null","","","na","","50","",""
"638.8999999761581","125602","HierDypk984axo","sub17","05","04","rl","test","83","img/p_c_diag.png","2","83","pattern,shape,color","51","1",""
"null","126609","HierDypk984axo","sub17","05","04","feedback","test","null","","","na","","51","",""
"661.1000000238419","127272","HierDypk984axo","sub17","05","04","rl","test","70","img/p_d_diag.png","4","70","pattern,shape,color","52","1",""
"null","128281","HierDypk984axo","sub17","05","04","feedback","test","null","","","na","","52","",""
"675.5","128959","HierDypk984axo","sub17","05","04","rl","test","68","img/b_d_diag.png","3","68","pattern,shape,color","53","1",""
"null","129965","HierDypk984axo","sub17","05","04","feedback","test","null","","","na","","53","",""
"563.8000000119209","130530","HierDypk984axo","sub17","05","04","rl","test","68","img/b_d_diag.png","3","68","pattern,shape,color","54","1",""
"null","131539","HierDypk984axo","sub17","05","04","feedback","test","null","","","na","","54","",""
"792.9000000357628","132334","HierDypk984axo","sub17","05","04","rl","test","74","img/p_c_dots.png","6","74","pattern,shape,color","55","1",""
"null","133340","HierDypk984axo","sub17","05","04","feedback","test","null","","","na","","55","",""
"816.4000000357628","134157","HierDypk984axo","sub17","05","04","rl","test","76","img/p_d_dots.png","8","76","pattern,shape,color","56","1",""
"null","135162","HierDypk984axo","sub17","05","04","feedback","test","null","","","na","","56","",""
"1321.800000011921","136486","HierDypk984axo","sub17","05","04","rl","test","83","img/b_c_diag.png","1","65","pattern,shape,color","57","0",""
"null","137490","HierDypk984axo","sub17","05","04","feedback","test","null","","","na","","57","",""
"1406.5","138898","HierDypk984axo","sub17","05","04","rl","test","75","img/b_d_dots.png","7","75","pattern,shape,color","58","1",""
"null","139904","HierDypk984axo","sub17","05","04","feedback","test","null","","","na","","58","",""
"540.5","140446","HierDypk984axo","sub17","05","04","rl","test","76","img/p_d_dots.png","8","76","pattern,shape,color","59","1",""
"null","141461","HierDypk984axo","sub17","05","04","feedback","test","null","","","na","","59","",""
"832.6999999880791","142295","HierDypk984axo","sub17","05","04","rl","test","83","img/p_c_diag.png","2","83","pattern,shape,color","60","1",""
"null","143308","HierDypk984axo","sub17","05","04","feedback","test","null","","","na","","60","",""
"710.8000000119209","144020","HierDypk984axo","sub17","05","04","rl","test","75","img/b_d_dots.png","7","75","pattern,shape,color","61","1",""
"null","145025","HierDypk984axo","sub17","05","04","feedback","test","null","","","na","","61","",""
"789.1999999880791","145815","HierDypk984axo","sub17","05","04","rl","test","70","img/p_d_diag.png","4","70","pattern,shape,color","62","1",""
"null","146826","HierDypk984axo","sub17","05","04","feedback","test","null","","","na","","62","",""
"773.2000000476837","147601","HierDypk984axo","sub17","05","04","rl","test","74","img/p_c_dots.png","6","74","pattern,shape,color","63","1",""
"null","148609","HierDypk984axo","sub17","05","04","feedback","test","null","","","na","","63","",""
"661.3999999761581","149272","HierDypk984axo","sub17","05","04","rl","test","72","img/b_c_dots.png","5","72","pattern,shape,color","64","1",""
"null","150281","HierDypk984axo","sub17","05","04","feedback","test","null","","","na","","64","",""
"545.3000000119209","150828","HierDypk984axo","sub17","05","04","rl","test","75","img/b_d_dots.png","7","75","pattern,shape,color","65","1",""
"null","151835","HierDypk984axo","sub17","05","04","feedback","test","null","","","na","","65","",""
"924.9000000357628","152761","HierDypk984axo","sub17","05","04","rl","test","68","img/b_d_diag.png","3","68","pattern,shape,color","66","1",""
"null","153768","HierDypk984axo","sub17","05","04","feedback","test","null","","","na","","66","",""
"588.6000000238419","154358","HierDypk984axo","sub17","05","04","rl","test","70","img/p_d_diag.png","4","70","pattern,shape,color","67","1",""
"null","155368","HierDypk984axo","sub17","05","04","feedback","test","null","","","na","","67","",""
"1122","156491","HierDypk984axo","sub17","05","04","rl","test","65","img/b_c_diag.png","1","65","pattern,shape,color","68","1",""
"null","157497","HierDypk984axo","sub17","05","04","feedback","test","null","","","na","","68","",""
"1443.699999988079","158942","HierDypk984axo","sub17","05","04","rl","test","74","img/p_c_dots.png","6","74","pattern,shape,color","69","1",""
"null","159952","HierDypk984axo","sub17","05","04","feedback","test","null","","","na","","69","",""
"616.8999999761581","160571","HierDypk984axo","sub17","05","04","rl","test","72","img/b_c_dots.png","5","72","pattern,shape,color","70","1",""
"null","161575","HierDypk984axo","sub17","05","04","feedback","test","null","","","na","","70","",""
"668.4000000357628","162245","HierDypk984axo","sub17","05","04","rl","test","74","img/p_c_dots.png","6","74","pattern,shape,color","71","1",""
"null","163251","HierDypk984axo","sub17","05","04","feedback","test","null","","","na","","71","",""
"1108.300000011921","164361","HierDypk984axo","sub17","05","04","rl","test","76","img/p_d_dots.png","8","76","pattern,shape,color","72","1",""
"null","165370","HierDypk984axo","sub17","05","04","feedback","test","null","","","na","","72","",""
"602.3000000119209","165974","HierDypk984axo","sub17","05","04","rl","test","76","img/p_d_dots.png","8","76","pattern,shape,color","73","1",""
"null","166983","HierDypk984axo","sub17","05","04","feedback","test","null","","","na","","73","",""
"1339.199999988079","168324","HierDypk984axo","sub17","05","04","rl","test","83","img/p_c_diag.png","2","83","pattern,shape,color","74","1",""
"null","169328","HierDypk984axo","sub17","05","04","feedback","test","null","","","na","","74","",""
"699.5","170029","HierDypk984axo","sub17","05","04","rl","test","65","img/b_c_diag.png","1","65","pattern,shape,color","75","1",""
"null","171040","HierDypk984axo","sub17","05","04","feedback","test","null","","","na","","75","",""
"891.3000000119209","171933","HierDypk984axo","sub17","05","04","rl","test","83","img/p_c_diag.png","2","83","pattern,shape,color","76","1",""
"null","172935","HierDypk984axo","sub17","05","04","feedback","test","null","","","na","","76","",""
"561.7000000476837","173498","HierDypk984axo","sub17","05","04","rl","test","72","img/b_c_dots.png","5","72","pattern,shape,color","77","1",""
"null","174504","HierDypk984axo","sub17","05","04","feedback","test","null","","","na","","77","",""
"1193.8999999761581","175698","HierDypk984axo","sub17","05","04","rl","test","68","img/b_d_diag.png","3","68","pattern,shape,color","78","1",""
"null","176705","HierDypk984axo","sub17","05","04","feedback","test","null","","","na","","78","",""
"991","177697","HierDypk984axo","sub17","05","04","rl","test","75","img/b_d_dots.png","7","75","pattern,shape,color","79","1",""
"null","178703","HierDypk984axo","sub17","05","04","feedback","test","null","","","na","","79","",""
"1323.699999988079","180029","HierDypk984axo","sub17","05","04","rl","test","65","img/b_c_diag.png","1","65","pattern,shape,color","80","1",""
"null","181042","HierDypk984axo","sub17","05","04","feedback","test","null","","","na","","80","",""
"961.7000000476837","182005","HierDypk984axo","sub17","05","04","rl","test","68","img/b_d_diag.png","3","68","pattern,shape,color","81","1",""
"null","183018","HierDypk984axo","sub17","05","04","feedback","test","null","","","na","","81","",""
"687","183707","HierDypk984axo","sub17","05","04","rl","test","70","img/p_d_diag.png","4","70","pattern,shape,color","82","1",""
"null","184710","HierDypk984axo","sub17","05","04","feedback","test","null","","","na","","82","",""
"1076.199999988079","185788","HierDypk984axo","sub17","05","04","rl","test","76","img/p_d_dots.png","8","76","pattern,shape,color","83","1",""
"null","186794","HierDypk984axo","sub17","05","04","feedback","test","null","","","na","","83","",""
"1112.8999999761581","187908","HierDypk984axo","sub17","05","04","rl","test","83","img/p_c_diag.png","2","83","pattern,shape,color","84","1",""
"null","188921","HierDypk984axo","sub17","05","04","feedback","test","null","","","na","","84","",""
"641.6000000238419","189564","HierDypk984axo","sub17","05","04","rl","test","70","img/p_d_diag.png","4","70","pattern,shape,color","85","1",""
"null","190574","HierDypk984axo","sub17","05","04","feedback","test","null","","","na","","85","",""
"1086.5","191662","HierDypk984axo","sub17","05","04","rl","test","74","img/p_c_dots.png","6","74","pattern,shape,color","86","1",""
"null","192670","HierDypk984axo","sub17","05","04","feedback","test","null","","","na","","86","",""
"668.1999999880791","193340","HierDypk984axo","sub17","05","04","rl","test","72","img/b_c_dots.png","5","72","pattern,shape,color","87","1",""
"null","194353","HierDypk984axo","sub17","05","04","feedback","test","null","","","na","","87","",""
"1066.0999999642372","195420","HierDypk984axo","sub17","05","04","rl","test","75","img/b_d_dots.png","7","75","pattern,shape,color","88","1",""
"null","196432","HierDypk984axo","sub17","05","04","feedback","test","null","","","na","","88","",""
"599.1000000238419","197032","HierDypk984axo","sub17","05","04","rl","test","75","img/b_d_dots.png","7","75","pattern,shape,color","89","1",""
"null","198033","HierDypk984axo","sub17","05","04","feedback","test","null","","","na","","89","",""
"1285.0999999642372","199320","HierDypk984axo","sub17","05","04","rl","test","74","img/p_c_dots.png","6","74","pattern,shape,color","90","1",""
"null","200326","HierDypk984axo","sub17","05","04","feedback","test","null","","","na","","90","",""
"1048.300000011921","201375","HierDypk984axo","sub17","05","04","rl","test","65","img/b_c_diag.png","1","65","pattern,shape,color","91","1",""
"null","202381","HierDypk984axo","sub17","05","04","feedback","test","null","","","na","","91","",""
"859.1999999880791","203242","HierDypk984axo","sub17","05","04","rl","test","68","img/b_d_diag.png","3","68","pattern,shape,color","92","1",""
"null","204246","HierDypk984axo","sub17","05","04","feedback","test","null","","","na","","92","",""
"1400.300000011921","205648","HierDypk984axo","sub17","05","04","rl","test","72","img/b_c_dots.png","5","72","pattern,shape,color","93","1",""
"null","206654","HierDypk984axo","sub17","05","04","feedback","test","null","","","na","","93","",""
"823.5999999642372","207479","HierDypk984axo","sub17","05","04","rl","test","70","img/p_d_diag.png","4","70","pattern,shape,color","94","1",""
"null","208486","HierDypk984axo","sub17","05","04","feedback","test","null","","","na","","94","",""
"1858.7000000476837","210347","HierDypk984axo","sub17","05","04","rl","test","76","img/p_d_dots.png","8","76","pattern,shape,color","95","1",""
"null","211357","HierDypk984axo","sub17","05","04","feedback","test","null","","","na","","95","",""
"1267.0999999642372","212626","HierDypk984axo","sub17","05","04","rl","test","68","img/b_d_diag.png","3","68","pattern,shape,color","96","1",""
"null","213636","HierDypk984axo","sub17","05","04","feedback","test","null","","","na","","96","",""
"769.9000000357628","214408","HierDypk984axo","sub17","05","04","rl","test","83","img/p_c_diag.png","2","83","pattern,shape,color","97","1",""
"null","215413","HierDypk984axo","sub17","05","04","feedback","test","null","","","na","","97","",""
"1337.2999999523163","216752","HierDypk984axo","sub17","05","04","rl","test","74","img/p_c_dots.png","6","74","pattern,shape,color","98","1",""
"null","217759","HierDypk984axo","sub17","05","04","feedback","test","null","","","na","","98","",""
"1084","218844","HierDypk984axo","sub17","05","04","rl","test","70","img/p_d_diag.png","4","70","pattern,shape,color","99","1",""
"null","219851","HierDypk984axo","sub17","05","04","feedback","test","null","","","na","","99","",""
"998.3000000119209","220851","HierDypk984axo","sub17","05","04","rl","test","72","img/b_c_dots.png","5","72","pattern,shape,color","100","1",""
"null","221862","HierDypk984axo","sub17","05","04","feedback","test","null","","","na","","100","",""
"579.6000000238419","222443","HierDypk984axo","sub17","05","04","rl","test","75","img/b_d_dots.png","7","75","pattern,shape,color","101","1",""
"null","223451","HierDypk984axo","sub17","05","04","feedback","test","null","","","na","","101","",""
"693.8999999761581","224147","HierDypk984axo","sub17","05","04","rl","test","83","img/p_c_diag.png","2","83","pattern,shape,color","102","1",""
"null","225157","HierDypk984axo","sub17","05","04","feedback","test","null","","","na","","102","",""
"795.8000000119209","225954","HierDypk984axo","sub17","05","04","rl","test","75","img/b_d_dots.png","7","75","pattern,shape,color","103","1",""
"null","226965","HierDypk984axo","sub17","05","04","feedback","test","null","","","na","","103","",""
"1262","228228","HierDypk984axo","sub17","05","04","rl","test","65","img/b_c_diag.png","1","65","pattern,shape,color","104","1",""
"null","229230","HierDypk984axo","sub17","05","04","feedback","test","null","","","na","","104","",""
"851.3000000119209","230083","HierDypk984axo","sub17","05","04","rl","test","65","img/b_c_diag.png","1","65","pattern,shape,color","105","1",""
"null","231095","HierDypk984axo","sub17","05","04","feedback","test","null","","","na","","105","",""
"1322.4000000357628","232419","HierDypk984axo","sub17","05","04","rl","test","75","img/p_d_dots.png","8","76","pattern,shape,color","106","0",""
"null","233429","HierDypk984axo","sub17","05","04","feedback","test","null","","","na","","106","",""
"1623.5999999642372","235054","HierDypk984axo","sub17","05","04","rl","test","74","img/p_c_dots.png","6","74","pattern,shape,color","107","1",""
"null","236062","HierDypk984axo","sub17","05","04","feedback","test","null","","","na","","107","",""
"742.9000000357628","236807","HierDypk984axo","sub17","05","04","rl","test","76","img/p_d_dots.png","8","76","pattern,shape,color","108","1",""
"null","237811","HierDypk984axo","sub17","05","04","feedback","test","null","","","na","","108","",""
"881.6000000238419","238694","HierDypk984axo","sub17","05","04","rl","test","70","img/p_d_diag.png","4","70","pattern,shape,color","109","1",""
"null","239700","HierDypk984axo","sub17","05","04","feedback","test","null","","","na","","109","",""
"2267.600000023842","241969","HierDypk984axo","sub17","05","04","rl","test","68","img/b_d_diag.png","3","68","pattern,shape,color","110","1",""
"null","242979","HierDypk984axo","sub17","05","04","feedback","test","null","","","na","","110","",""
"898.3000000119209","243879","HierDypk984axo","sub17","05","04","rl","test","75","img/b_d_dots.png","7","75","pattern,shape,color","111","1",""
"null","244884","HierDypk984axo","sub17","05","04","feedback","test","null","","","na","","111","",""
"999.6000000238419","245885","HierDypk984axo","sub17","05","04","rl","test","70","img/p_d_diag.png","4","70","pattern,shape,color","112","1",""
"null","246894","HierDypk984axo","sub17","05","04","feedback","test","null","","","na","","112","",""
"775.0999999642372","247671","HierDypk984axo","sub17","05","04","rl","test","72","img/p_c_dots.png","6","74","pattern,shape,color","113","0",""
"null","248677","HierDypk984axo","sub17","05","04","feedback","test","null","","","na","","113","",""
"498.5","249177","HierDypk984axo","sub17","05","04","rl","test","72","img/b_c_dots.png","5","72","pattern,shape,color","114","1",""
"null","250190","HierDypk984axo","sub17","05","04","feedback","test","null","","","na","","114","",""
"873.1000000238419","251065","HierDypk984axo","sub17","05","04","rl","test","76","img/p_d_dots.png","8","76","pattern,shape,color","115","1",""
"null","252074","HierDypk984axo","sub17","05","04","feedback","test","null","","","na","","115","",""
"1223.5","253299","HierDypk984axo","sub17","05","04","rl","test","83","img/p_c_diag.png","2","83","pattern,shape,color","116","1",""
"null","254305","HierDypk984axo","sub17","05","04","feedback","test","null","","","na","","116","",""
"787.8999999761581","255095","HierDypk984axo","sub17","05","04","rl","test","83","img/p_c_diag.png","2","83","pattern,shape,color","117","1",""
"null","256101","HierDypk984axo","sub17","05","04","feedback","test","null","","","na","","117","",""
"2315.199999988079","258418","HierDypk984axo","sub17","05","04","rl","test","72","img/b_c_dots.png","5","72","pattern,shape,color","118","1",""
"null","259425","HierDypk984axo","sub17","05","04","feedback","test","null","","","na","","118","",""
"2241","261667","HierDypk984axo","sub17","05","04","rl","test","68","img/b_d_diag.png","3","68","pattern,shape,color","119","1",""
"null","262674","HierDypk984axo","sub17","05","04","feedback","test","null","","","na","","119","",""
"910.1000000238419","263586","HierDypk984axo","sub17","05","04","rl","test","68","img/b_c_diag.png","1","65","pattern,shape,color","120","0",""
"null","264593","HierDypk984axo","sub17","05","04","feedback","test","null","","","na","","120","",""
"1646.5","266241","HierDypk984axo","sub17","05","04","rl","test","75","img/b_d_dots.png","7","75","pattern,shape,color","121","1",""
"null","267253","HierDypk984axo","sub17","05","04","feedback","test","null","","","na","","121","",""
"1871.699999988079","269126","HierDypk984axo","sub17","05","04","rl","test","65","img/b_c_diag.png","1","65","pattern,shape,color","122","1",""
"null","270131","HierDypk984axo","sub17","05","04","feedback","test","null","","","na","","122","",""
"594.6999999880791","270727","HierDypk984axo","sub17","05","04","rl","test","72","img/b_c_dots.png","5","72","pattern,shape,color","123","1",""
"null","271738","HierDypk984axo","sub17","05","04","feedback","test","null","","","na","","123","",""
"1055.6000000238419","272795","HierDypk984axo","sub17","05","04","rl","test","70","img/p_d_diag.png","4","70","pattern,shape,color","124","1",""
"null","273801","HierDypk984axo","sub17","05","04","feedback","test","null","","","na","","124","",""
"754.2999999523163","274557","HierDypk984axo","sub17","05","04","rl","test","68","img/b_d_diag.png","3","68","pattern,shape,color","125","1",""
"null","275563","HierDypk984axo","sub17","05","04","feedback","test","null","","","na","","125","",""
"992.3000000119209","276556","HierDypk984axo","sub17","05","04","rl","test","76","img/p_d_dots.png","8","76","pattern,shape,color","126","1",""
"null","277560","HierDypk984axo","sub17","05","04","feedback","test","null","","","na","","126","",""
"1620","279181","HierDypk984axo","sub17","05","04","rl","test","83","img/p_c_diag.png","2","83","pattern,shape,color","127","1",""
"null","280185","HierDypk984axo","sub17","05","04","feedback","test","null","","","na","","127","",""
"990.9000000357628","281178","HierDypk984axo","sub17","05","04","rl","test","74","img/p_c_dots.png","6","74","pattern,shape,color","128","1",""
"null","282188","HierDypk984axo","sub17","05","04","feedback","test","null","","","na","","128","",""
"1082.8999999761581","283273","HierDypk984axo","sub17","05","04","rl","test","75","img/b_d_dots.png","7","75","pattern,shape,color","129","1",""
"null","284281","HierDypk984axo","sub17","05","04","feedback","test","null","","","na","","129","",""
"1012.6000000238419","285295","HierDypk984axo","sub17","05","04","rl","test","72","img/b_c_dots.png","5","72","pattern,shape,color","130","1",""
"null","286304","HierDypk984axo","sub17","05","04","feedback","test","null","","","na","","130","",""
"1118.5","287424","HierDypk984axo","sub17","05","04","rl","test","83","img/p_c_diag.png","2","83","pattern,shape,color","131","1",""
"null","288428","HierDypk984axo","sub17","05","04","feedback","test","null","","","na","","131","",""
"968.6999999880791","289398","HierDypk984axo","sub17","05","04","rl","test","75","img/b_d_dots.png","7","75","pattern,shape,color","132","1",""
"null","290410","HierDypk984axo","sub17","05","04","feedback","test","null","","","na","","132","",""
"1480.5","291892","HierDypk984axo","sub17","05","04","rl","test","65","img/b_c_diag.png","1","65","pattern,shape,color","133","1",""
"null","292898","HierDypk984axo","sub17","05","04","feedback","test","null","","","na","","133","",""
"622.8000000119209","293522","HierDypk984axo","sub17","05","04","rl","test","70","img/b_d_diag.png","3","68","pattern,shape,color","134","0",""
"null","294531","HierDypk984axo","sub17","05","04","feedback","test","null","","","na","","134","",""
"676.6999999880791","295209","HierDypk984axo","sub17","05","04","rl","test","68","img/b_d_diag.png","3","68","pattern,shape,color","135","1",""
"null","296216","HierDypk984axo","sub17","05","04","feedback","test","null","","","na","","135","",""
"731.5999999642372","296949","HierDypk984axo","sub17","05","04","rl","test","70","img/p_d_diag.png","4","70","pattern,shape,color","136","1",""
"null","297951","HierDypk984axo","sub17","05","04","feedback","test","null","","","na","","136","",""
"1079","299032","HierDypk984axo","sub17","05","04","rl","test","74","img/p_c_dots.png","6","74","pattern,shape,color","137","1",""
"null","300042","HierDypk984axo","sub17","05","04","feedback","test","null","","","na","","137","",""
"570.1999999880791","300614","HierDypk984axo","sub17","05","04","rl","test","74","img/p_c_diag.png","2","83","pattern,shape,color","138","0",""
"null","301625","HierDypk984axo","sub17","05","04","feedback","test","null","","","na","","138","",""
"1106.300000011921","302733","HierDypk984axo","sub17","05","04","rl","test","76","img/p_d_dots.png","8","76","pattern,shape,color","139","1",""
"null","303743","HierDypk984axo","sub17","05","04","feedback","test","null","","","na","","139","",""
"683","304428","HierDypk984axo","sub17","05","04","rl","test","74","img/p_c_dots.png","6","74","pattern,shape,color","140","1",""
"null","305434","HierDypk984axo","sub17","05","04","feedback","test","null","","","na","","140","",""
"606.7999999523163","306042","HierDypk984axo","sub17","05","04","rl","test","72","img/b_c_dots.png","5","72","pattern,shape,color","141","1",""
"null","307049","HierDypk984axo","sub17","05","04","feedback","test","null","","","na","","141","",""
"1240.1000000238419","308291","HierDypk984axo","sub17","05","04","rl","test","70","img/p_d_diag.png","4","70","pattern,shape,color","142","1",""
"null","309299","HierDypk984axo","sub17","05","04","feedback","test","null","","","na","","142","",""
"585.6000000238419","309886","HierDypk984axo","sub17","05","04","rl","test","76","img/p_d_dots.png","8","76","pattern,shape,color","143","1",""
"null","310895","HierDypk984axo","sub17","05","04","feedback","test","null","","","na","","143","",""
"716.6999999880791","311614","HierDypk984axo","sub17","05","04","rl","test","70","img/p_d_diag.png","4","70","pattern,shape,color","144","1",""
"null","312626","HierDypk984axo","sub17","05","04","feedback","test","null","","","na","","144","",""
"790.8999999761581","313418","HierDypk984axo","sub17","05","04","rl","test","65","img/b_c_diag.png","1","65","pattern,shape,color","145","1",""
"null","314425","HierDypk984axo","sub17","05","04","feedback","test","null","","","na","","145","",""
"1002.5","315429","HierDypk984axo","sub17","05","04","rl","test","75","img/b_d_dots.png","7","75","pattern,shape,color","146","1",""
"null","316439","HierDypk984axo","sub17","05","04","feedback","test","null","","","na","","146","",""
"826.3000000119209","317266","HierDypk984axo","sub17","05","04","rl","test","83","img/b_c_diag.png","1","65","pattern,shape,color","147","0",""
"null","318270","HierDypk984axo","sub17","05","04","feedback","test","null","","","na","","147","",""
"915.5","319187","HierDypk984axo","sub17","05","04","rl","test","70","img/b_d_diag.png","3","68","pattern,shape,color","148","0",""
"null","320194","HierDypk984axo","sub17","05","04","feedback","test","null","","","na","","148","",""
"1415.1000000238419","321610","HierDypk984axo","sub17","05","04","rl","test","72","img/b_c_dots.png","5","72","pattern,shape,color","149","1",""
"null","322615","HierDypk984axo","sub17","05","04","feedback","test","null","","","na","","149","",""
"1525.5","324142","HierDypk984axo","sub17","05","04","rl","test","70","img/p_d_diag.png","4","70","pattern,shape,color","150","1",""
"null","325150","HierDypk984axo","sub17","05","04","feedback","test","null","","","na","","150","",""
"1063.9000000357628","326215","HierDypk984axo","sub17","05","04","rl","test","83","img/p_c_diag.png","2","83","pattern,shape,color","151","1",""
"null","327222","HierDypk984axo","sub17","05","04","feedback","test","null","","","na","","151","",""
"599","327822","HierDypk984axo","sub17","05","04","rl","test","83","img/p_c_diag.png","2","83","pattern,shape,color","152","1",""
"null","328830","HierDypk984axo","sub17","05","04","feedback","test","null","","","na","","152","",""
"680.2000000476837","329512","HierDypk984axo","sub17","05","04","rl","test","68","img/b_d_diag.png","3","68","pattern,shape,color","153","1",""
"null","330517","HierDypk984axo","sub17","05","04","feedback","test","null","","","na","","153","",""
"1376","331894","HierDypk984axo","sub17","05","04","rl","test","74","img/p_c_dots.png","6","74","pattern,shape,color","154","1",""
"null","332901","HierDypk984axo","sub17","05","04","feedback","test","null","","","na","","154","",""
"599.1000000238419","333501","HierDypk984axo","sub17","05","04","rl","test","72","img/b_c_diag.png","1","65","pattern,shape,color","155","0",""
"null","334511","HierDypk984axo","sub17","05","04","feedback","test","null","","","na","","155","",""
"1492.6000000238419","336005","HierDypk984axo","sub17","05","04","rl","test","76","img/p_d_dots.png","8","76","pattern,shape,color","156","1",""
"null","337016","HierDypk984axo","sub17","05","04","feedback","test","null","","","na","","156","",""
"1288.4000000357628","338306","HierDypk984axo","sub17","05","04","rl","test","76","img/p_d_dots.png","8","76","pattern,shape,color","157","1",""
"null","339311","HierDypk984axo","sub17","05","04","feedback","test","null","","","na","","157","",""
"872.1999999880791","340185","HierDypk984axo","sub17","05","04","rl","test","74","img/p_c_dots.png","6","74","pattern,shape,color","158","1",""
"null","341190","HierDypk984axo","sub17","05","04","feedback","test","null","","","na","","158","",""
"634.3000000119209","341826","HierDypk984axo","sub17","05","04","rl","test","72","img/b_c_dots.png","5","72","pattern,shape,color","159","1",""
"null","342829","HierDypk984axo","sub17","05","04","feedback","test","null","","","na","","159","",""
"716.5","343547","HierDypk984axo","sub17","05","04","rl","test","76","img/p_d_dots.png","8","76","pattern,shape,color","160","1",""
"null","344561","HierDypk984axo","sub17","05","04","feedback","test","null","","","na","","160","",""
"723.5","345286","HierDypk984axo","sub17","05","04","rl","test","75","img/b_d_dots.png","7","75","pattern,shape,color","161","1",""
"null","346292","HierDypk984axo","sub17","05","04","feedback","test","null","","","na","","161","",""
"1432.9000000357628","347726","HierDypk984axo","sub17","05","04","rl","test","65","img/b_c_diag.png","1","65","pattern,shape,color","162","1",""
"null","348735","HierDypk984axo","sub17","05","04","feedback","test","null","","","na","","162","",""
"1066","349803","HierDypk984axo","sub17","05","04","rl","test","74","img/p_c_dots.png","6","74","pattern,shape,color","163","1",""
"null","350815","HierDypk984axo","sub17","05","04","feedback","test","null","","","na","","163","",""
"729.2000000476837","351546","HierDypk984axo","sub17","05","04","rl","test","72","img/b_c_dots.png","5","72","pattern,shape,color","164","1",""
"null","352550","HierDypk984axo","sub17","05","04","feedback","test","null","","","na","","164","",""
"1064.2999999523163","353616","HierDypk984axo","sub17","05","04","rl","test","70","img/p_d_diag.png","4","70","pattern,shape,color","165","1",""
"null","354624","HierDypk984axo","sub17","05","04","feedback","test","null","","","na","","165","",""
"1387.6000000238419","356013","HierDypk984axo","sub17","05","04","rl","test","83","img/p_c_diag.png","2","83","pattern,shape,color","166","1",""
"null","357021","HierDypk984axo","sub17","05","04","feedback","test","null","","","na","","166","",""
"1182.7000000476837","358204","HierDypk984axo","sub17","05","04","rl","test","75","img/b_d_dots.png","7","75","pattern,shape,color","167","1",""
"null","359214","HierDypk984axo","sub17","05","04","feedback","test","null","","","na","","167","",""
"883.5999999642372","360099","HierDypk984axo","sub17","05","04","rl","test","68","img/b_d_diag.png","3","68","pattern,shape,color","168","1",""
"null","361108","HierDypk984axo","sub17","05","04","feedback","test","null","","","na","","168","",""
"1760.800000011921","362870","HierDypk984axo","sub17","05","04","rl","test","83","img/b_c_diag.png","1","65","pattern,shape,color","169","0",""
"null","363877","HierDypk984axo","sub17","05","04","feedback","test","null","","","na","","169","",""
"1185.7000000476837","365064","HierDypk984axo","sub17","05","04","rl","test","68","img/b_d_diag.png","3","68","pattern,shape,color","170","1",""
"null","366069","HierDypk984axo","sub17","05","04","feedback","test","null","","","na","","170","",""
"1216.5999999642372","367287","HierDypk984axo","sub17","05","04","rl","test","76","img/p_d_dots.png","8","76","pattern,shape,color","171","1",""
"null","368294","HierDypk984axo","sub17","05","04","feedback","test","null","","","na","","171","",""
"2345.7000000476837","370641","HierDypk984axo","sub17","05","04","rl","test","72","img/b_c_dots.png","5","72","pattern,shape,color","172","1",""
"null","371652","HierDypk984axo","sub17","05","04","feedback","test","null","","","na","","172","",""
"824.3000000119209","372478","HierDypk984axo","sub17","05","04","rl","test","74","img/p_c_dots.png","6","74","pattern,shape,color","173","1",""
"null","373486","HierDypk984axo","sub17","05","04","feedback","test","null","","","na","","173","",""
"1953.800000011921","375442","HierDypk984axo","sub17","05","04","rl","test","68","img/p_d_diag.png","4","70","pattern,shape,color","174","0",""
"null","376452","HierDypk984axo","sub17","05","04","feedback","test","null","","","na","","174","",""
"1834","378287","HierDypk984axo","sub17","05","04","rl","test","72","img/b_c_dots.png","5","72","pattern,shape,color","175","1",""
"null","379292","HierDypk984axo","sub17","05","04","feedback","test","null","","","na","","175","",""
"695.4000000357628","379989","HierDypk984axo","sub17","05","04","rl","test","75","img/b_d_dots.png","7","75","pattern,shape,color","176","1",""
"null","380997","HierDypk984axo","sub17","05","04","feedback","test","null","","","na","","176","",""
"1436","382435","HierDypk984axo","sub17","05","04","rl","test","83","img/p_c_diag.png","2","83","pattern,shape,color","177","1",""
"null","383444","HierDypk984axo","sub17","05","04","feedback","test","null","","","na","","177","",""
"553.3000000119209","383999","HierDypk984axo","sub17","05","04","rl","test","83","img/p_c_diag.png","2","83","pattern,shape,color","178","1",""
"null","385006","HierDypk984axo","sub17","05","04","feedback","test","null","","","na","","178","",""
"973.0999999642372","385981","HierDypk984axo","sub17","05","04","rl","test","76","img/p_d_dots.png","8","76","pattern,shape,color","179","1",""
"null","386986","HierDypk984axo","sub17","05","04","feedback","test","null","","","na","","179","",""
"1042.6000000238419","388031","HierDypk984axo","sub17","05","04","rl","test","75","img/b_d_dots.png","7","75","pattern,shape,color","180","1",""
"null","389033","HierDypk984axo","sub17","05","04","feedback","test","null","","","na","","180","",""
"null","391540","HierDypk984axo","sub17","05","04","rl","test","null","img/b_c_diag.png","1","65","pattern,shape,color","181","0",""
"null","392547","HierDypk984axo","sub17","05","04","feedback","test","null","","","na","","181","",""
"983.1999999880791","393532","HierDypk984axo","sub17","05","04","rl","test","68","img/b_d_diag.png","3","68","pattern,shape,color","182","1",""
"null","394542","HierDypk984axo","sub17","05","04","feedback","test","null","","","na","","182","",""
"1350.199999988079","395893","HierDypk984axo","sub17","05","04","rl","test","74","img/p_c_dots.png","6","74","pattern,shape,color","183","1",""
"null","396902","HierDypk984axo","sub17","05","04","feedback","test","null","","","na","","183","",""
"1930.800000011921","398834","HierDypk984axo","sub17","05","04","rl","test","65","img/b_c_diag.png","1","65","pattern,shape,color","184","1",""
"null","399843","HierDypk984axo","sub17","05","04","feedback","test","null","","","na","","184","",""
"1183.6000000238419","401028","HierDypk984axo","sub17","05","04","rl","test","70","img/p_d_diag.png","4","70","pattern,shape,color","185","1",""
"null","402034","HierDypk984axo","sub17","05","04","feedback","test","null","","","na","","185","",""
"986.3000000119209","403021","HierDypk984axo","sub17","05","04","rl","test","75","img/b_d_dots.png","7","75","pattern,shape,color","186","1",""
"null","404025","HierDypk984axo","sub17","05","04","feedback","test","null","","","na","","186","",""
"1113.4000000357628","405140","HierDypk984axo","sub17","05","04","rl","test","74","img/p_c_dots.png","6","74","pattern,shape,color","187","1",""
"null","406144","HierDypk984axo","sub17","05","04","feedback","test","null","","","na","","187","",""
"634.1999999880791","406779","HierDypk984axo","sub17","05","04","rl","test","74","img/p_c_dots.png","6","74","pattern,shape,color","188","1",""
"null","407785","HierDypk984axo","sub17","05","04","feedback","test","null","","","na","","188","",""
"1503.7000000476837","409290","HierDypk984axo","sub17","05","04","rl","test","68","img/b_d_diag.png","3","68","pattern,shape,color","189","1",""
"null","410296","HierDypk984axo","sub17","05","04","feedback","test","null","","","na","","189","",""
"1634.1000000238419","411931","HierDypk984axo","sub17","05","04","rl","test","72","img/b_c_dots.png","5","72","pattern,shape,color","190","1",""
"null","412937","HierDypk984axo","sub17","05","04","feedback","test","null","","","na","","190","",""
"null","415441","HierDypk984axo","sub17","05","04","rl","test","null","img/p_c_diag.png","2","83","pattern,shape,color","191","0",""
"null","416452","HierDypk984axo","sub17","05","04","feedback","test","null","","","na","","191","",""
"826.6999999880791","417280","HierDypk984axo","sub17","05","04","rl","test","70","img/p_d_diag.png","4","70","pattern,shape,color","192","1",""
"null","418289","HierDypk984axo","sub17","05","04","feedback","test","null","","","na","","192","",""
"960.6000000238419","419252","HierDypk984axo","sub17","05","04","rl","test","76","img/p_d_dots.png","8","76","pattern,shape,color","193","1",""
"null","420256","HierDypk984axo","sub17","05","04","feedback","test","null","","","na","","193","",""
"872.0999999642372","421130","HierDypk984axo","sub17","05","04","rl","test","75","img/b_d_diag.png","3","68","pattern,shape,color","194","0",""
"null","422136","HierDypk984axo","sub17","05","04","feedback","test","null","","","na","","194","",""
"804.1000000238419","422941","HierDypk984axo","sub17","05","04","rl","test","76","img/p_d_dots.png","8","76","pattern,shape,color","195","1",""
"null","423947","HierDypk984axo","sub17","05","04","feedback","test","null","","","na","","195","",""
"1517","425466","HierDypk984axo","sub17","05","04","rl","test","65","img/b_c_diag.png","1","65","pattern,shape,color","196","1",""
"null","426473","HierDypk984axo","sub17","05","04","feedback","test","null","","","na","","196","",""
"2236","428710","HierDypk984axo","sub17","05","04","rl","test","70","img/p_d_diag.png","4","70","pattern,shape,color","197","1",""
"null","429719","HierDypk984axo","sub17","05","04","feedback","test","null","","","na","","197","",""
"683.1000000238419","430404","HierDypk984axo","sub17","05","04","rl","test","72","img/b_c_dots.png","5","72","pattern,shape,color","198","1",""
"null","431410","HierDypk984axo","sub17","05","04","feedback","test","null","","","na","","198","",""
"2089.7999999523163","433501","HierDypk984axo","sub17","05","04","rl","test","75","img/b_d_dots.png","7","75","pattern,shape,color","199","1",""
"null","434507","HierDypk984axo","sub17","05","04","feedback","test","null","","","na","","199","",""
"954.3000000119209","435462","HierDypk984axo","sub17","05","04","rl","test","83","img/p_c_diag.png","2","83","pattern,shape,color","200","1",""
"null","436472","HierDypk984axo","sub17","05","04","feedback","test","null","","","na","","200","",""
"632.9000000357628","437106","HierDypk984axo","sub17","05","04","rl","test","70","img/p_d_diag.png","4","70","pattern,shape,color","201","1",""
"null","438112","HierDypk984axo","sub17","05","04","feedback","test","null","","","na","","201","",""
"766.8000000119209","438880","HierDypk984axo","sub17","05","04","rl","test","65","img/b_c_diag.png","1","65","pattern,shape,color","202","1",""
"null","439888","HierDypk984axo","sub17","05","04","feedback","test","null","","","na","","202","",""
"2045.9000000357628","441935","HierDypk984axo","sub17","05","04","rl","test","74","img/p_c_dots.png","6","74","pattern,shape,color","203","1",""
"null","442943","HierDypk984axo","sub17","05","04","feedback","test","null","","","na","","203","",""
"779.5","443724","HierDypk984axo","sub17","05","04","rl","test","68","img/b_d_diag.png","3","68","pattern,shape,color","204","1",""
"null","444736","HierDypk984axo","sub17","05","04","feedback","test","null","","","na","","204","",""
"622.0999999642372","445360","HierDypk984axo","sub17","05","04","rl","test","68","img/b_c_dots.png","5","72","pattern,shape,color","205","0",""
"null","446369","HierDypk984axo","sub17","05","04","feedback","test","null","","","na","","205","",""
"1371.8999999761581","447743","HierDypk984axo","sub17","05","04","rl","test","83","img/p_c_diag.png","2","83","pattern,shape,color","206","1",""
"null","448753","HierDypk984axo","sub17","05","04","feedback","test","null","","","na","","206","",""
"1470.800000011921","450226","HierDypk984axo","sub17","05","04","rl","test","72","img/b_c_dots.png","5","72","pattern,shape,color","207","1",""
"null","451231","HierDypk984axo","sub17","05","04","feedback","test","null","","","na","","207","",""
"573.6999999880791","451806","HierDypk984axo","sub17","05","04","rl","test","76","img/p_d_dots.png","8","76","pattern,shape,color","208","1",""
"null","452815","HierDypk984axo","sub17","05","04","feedback","test","null","","","na","","208","",""
"1213.5","454030","HierDypk984axo","sub17","05","04","rl","test","83","img/p_c_diag.png","2","83","pattern,shape,color","209","1",""
"null","455039","HierDypk984axo","sub17","05","04","feedback","test","null","","","na","","209","",""
"1101.4000000357628","456142","HierDypk984axo","sub17","05","04","rl","test","75","img/b_d_dots.png","7","75","pattern,shape,color","210","1",""
"null","457151","HierDypk984axo","sub17","05","04","feedback","test","null","","","na","","210","",""
"625.6999999880791","457778","HierDypk984axo","sub17","05","04","rl","test","75","img/b_d_dots.png","7","75","pattern,shape,color","211","1",""
"null","458785","HierDypk984axo","sub17","05","04","feedback","test","null","","","na","","211","",""
"1152.7999999523163","459939","HierDypk984axo","sub17","05","04","rl","test","83","img/b_c_diag.png","1","65","pattern,shape,color","212","0",""
"null","460949","HierDypk984axo","sub17","05","04","feedback","test","null","","","na","","212","",""
"947.2000000476837","461898","HierDypk984axo","sub17","05","04","rl","test","76","img/p_d_dots.png","8","76","pattern,shape,color","213","1",""
"null","462901","HierDypk984axo","sub17","05","04","feedback","test","null","","","na","","213","",""
"659.6000000238419","463563","HierDypk984axo","sub17","05","04","rl","test","75","img/p_d_dots.png","8","76","pattern,shape,color","214","0",""
"null","464568","HierDypk984axo","sub17","05","04","feedback","test","null","","","na","","214","",""
"799.8000000119209","465369","HierDypk984axo","sub17","05","04","rl","test","70","img/p_d_diag.png","4","70","pattern,shape,color","215","1",""
"null","466374","HierDypk984axo","sub17","05","04","feedback","test","null","","","na","","215","",""
"782","467158","HierDypk984axo","sub17","05","04","rl","test","68","img/b_d_diag.png","3","68","pattern,shape,color","216","1",""
"null","468167","HierDypk984axo","sub17","05","04","feedback","test","null","","","na","","216","",""
"1187","469355","HierDypk984axo","sub17","05","04","rl","test","74","img/p_c_dots.png","6","74","pattern,shape,color","217","1",""
"null","470370","HierDypk984axo","sub17","05","04","feedback","test","null","","","na","","217","",""
"1021.5","471393","HierDypk984axo","sub17","05","04","rl","test","68","img/b_d_diag.png","3","68","pattern,shape,color","218","1",""
"null","472398","HierDypk984axo","sub17","05","04","feedback","test","null","","","na","","218","",""
"683.8000000119209","473083","HierDypk984axo","sub17","05","04","rl","test","70","img/p_d_diag.png","4","70","pattern,shape,color","219","1",""
"null","474095","HierDypk984axo","sub17","05","04","feedback","test","null","","","na","","219","",""
"930","475027","HierDypk984axo","sub17","05","04","rl","test","65","img/b_c_diag.png","1","65","pattern,shape,color","220","1",""
"null","476037","HierDypk984axo","sub17","05","04","feedback","test","null","","","na","","220","",""
"925.9000000357628","476964","HierDypk984axo","sub17","05","04","rl","test","83","img/p_c_diag.png","2","83","pattern,shape,color","221","1",""
"null","477976","HierDypk984axo","sub17","05","04","feedback","test","null","","","na","","221","",""
"1037","479015","HierDypk984axo","sub17","05","04","rl","test","72","img/b_c_dots.png","5","72","pattern,shape,color","222","1",""
"null","480023","HierDypk984axo","sub17","05","04","feedback","test","null","","","na","","222","",""
"858.4000000357628","480882","HierDypk984axo","sub17","05","04","rl","test","76","img/p_d_dots.png","8","76","pattern,shape,color","223","1",""
"null","481894","HierDypk984axo","sub17","05","04","feedback","test","null","","","na","","223","",""
"902.3999999761581","482798","HierDypk984axo","sub17","05","04","rl","test","74","img/p_c_dots.png","6","74","pattern,shape,color","224","1",""
"null","483804","HierDypk984axo","sub17","05","04","feedback","test","null","","","na","","224","",""
"663.1000000238419","484469","HierDypk984axo","sub17","05","04","rl","test","75","img/b_d_dots.png","7","75","pattern,shape,color","225","1",""
"null","485476","HierDypk984axo","sub17","05","04","feedback","test","null","","","na","","225","",""
"875.6000000238419","486353","HierDypk984axo","sub17","05","04","rl","test","83","img/b_c_diag.png","1","65","pattern,shape,color","226","0",""
"null","487359","HierDypk984axo","sub17","05","04","feedback","test","null","","","na","","226","",""
"1410.300000011921","488771","HierDypk984axo","sub17","05","04","rl","test","74","img/p_c_dots.png","6","74","pattern,shape,color","227","1",""
"null","489780","HierDypk984axo","sub17","05","04","feedback","test","null","","","na","","227","",""
"1078.199999988079","490860","HierDypk984axo","sub17","05","04","rl","test","68","img/b_d_diag.png","3","68","pattern,shape,color","228","1",""
"null","491869","HierDypk984axo","sub17","05","04","feedback","test","null","","","na","","228","",""
"1176.6000000238419","493047","HierDypk984axo","sub17","05","04","rl","test","75","img/b_d_dots.png","7","75","pattern,shape,color","229","1",""
"null","494053","HierDypk984axo","sub17","05","04","feedback","test","null","","","na","","229","",""
"1119.199999988079","495174","HierDypk984axo","sub17","05","04","rl","test","83","img/p_c_diag.png","2","83","pattern,shape,color","230","1",""
"null","496182","HierDypk984axo","sub17","05","04","feedback","test","null","","","na","","230","",""
"900.9000000357628","497085","HierDypk984axo","sub17","05","04","rl","test","75","img/b_d_dots.png","7","75","pattern,shape,color","231","1",""
"null","498091","HierDypk984axo","sub17","05","04","feedback","test","null","","","na","","231","",""
"869.4000000357628","498962","HierDypk984axo","sub17","05","04","rl","test","76","img/p_d_diag.png","4","70","pattern,shape,color","232","0",""
"null","499976","HierDypk984axo","sub17","05","04","feedback","test","null","","","na","","232","",""
"836.8999999761581","500814","HierDypk984axo","sub17","05","04","rl","test","72","img/b_c_dots.png","5","72","pattern,shape,color","233","1",""
"null","501821","HierDypk984axo","sub17","05","04","feedback","test","null","","","na","","233","",""
"576.2999999523163","502398","HierDypk984axo","sub17","05","04","rl","test","72","img/b_c_dots.png","5","72","pattern,shape,color","234","1",""
"null","503405","HierDypk984axo","sub17","05","04","feedback","test","null","","","na","","234","",""
"831.5","504239","HierDypk984axo","sub17","05","04","rl","test","83","img/p_c_diag.png","2","83","pattern,shape,color","235","1",""
"null","505245","HierDypk984axo","sub17","05","04","feedback","test","null","","","na","","235","",""
"797.9000000357628","506044","HierDypk984axo","sub17","05","04","rl","test","68","img/b_d_diag.png","3","68","pattern,shape,color","236","1",""
"null","507053","HierDypk984axo","sub17","05","04","feedback","test","null","","","na","","236","",""
"657.6000000238419","507712","HierDypk984axo","sub17","05","04","rl","test","70","img/p_d_diag.png","4","70","pattern,shape,color","237","1",""
"null","508715","HierDypk984axo","sub17","05","04","feedback","test","null","","","na","","237","",""
"653.3000000119209","509370","HierDypk984axo","sub17","05","04","rl","test","76","img/p_d_dots.png","8","76","pattern,shape,color","238","1",""
"null","510381","HierDypk984axo","sub17","05","04","feedback","test","null","","","na","","238","",""
"1221.4000000357628","511603","HierDypk984axo","sub17","05","04","rl","test","68","img/b_d_diag.png","3","68","pattern,shape,color","239","1",""
"null","512611","HierDypk984axo","sub17","05","04","feedback","test","null","","","na","","239","",""
"638.6999999880791","513251","HierDypk984axo","sub17","05","04","rl","test","68","img/b_c_diag.png","1","65","pattern,shape,color","240","0",""
"null","514259","HierDypk984axo","sub17","05","04","feedback","test","null","","","na","","240","",""
"546.1000000238419","514807","HierDypk984axo","sub17","05","04","rl","test","65","img/b_c_diag.png","1","65","pattern,shape,color","241","1",""
"null","515814","HierDypk984axo","sub17","05","04","feedback","test","null","","","na","","241","",""
"983.4000000357628","516799","HierDypk984axo","sub17","05","04","rl","test","74","img/p_c_dots.png","6","74","pattern,shape,color","242","1",""
"null","517805","HierDypk984axo","sub17","05","04","feedback","test","null","","","na","","242","",""
"1609.800000011921","519415","HierDypk984axo","sub17","05","04","rl","test","83","img/p_c_diag.png","2","83","pattern,shape,color","243","1",""
"null","520419","HierDypk984axo","sub17","05","04","feedback","test","null","","","na","","243","",""
"531","520951","HierDypk984axo","sub17","05","04","rl","test","74","img/p_c_dots.png","6","74","pattern,shape,color","244","1",""
"null","521956","HierDypk984axo","sub17","05","04","feedback","test","null","","","na","","244","",""
"857.3000000119209","522814","HierDypk984axo","sub17","05","04","rl","test","76","img/p_d_dots.png","8","76","pattern,shape,color","245","1",""
"null","523821","HierDypk984axo","sub17","05","04","feedback","test","null","","","na","","245","",""
"552.1999999880791","524374","HierDypk984axo","sub17","05","04","rl","test","75","img/b_d_dots.png","7","75","pattern,shape,color","246","1",""
"null","525380","HierDypk984axo","sub17","05","04","feedback","test","null","","","na","","246","",""
"813.1000000238419","526194","HierDypk984axo","sub17","05","04","rl","test","72","img/b_c_dots.png","5","72","pattern,shape,color","247","1",""
"null","527204","HierDypk984axo","sub17","05","04","feedback","test","null","","","na","","247","",""
"1869.6000000238419","529075","HierDypk984axo","sub17","05","04","rl","test","70","img/p_d_diag.png","4","70","pattern,shape,color","248","1",""
"null","530082","HierDypk984axo","sub17","05","04","feedback","test","null","","","na","","248","",""
"3409.400000035763","533500","HierDypk984axo","sub17","05","04","","","","","","","","","","{""Q0"":""8""}"
"2477.899999976158","535980","HierDypk984axo","sub17","05","04","","","","","","","","","","{""Q0"":""none""}"
"696.2999999523163","536677","HierDypk984axo","sub17","05","04","","","","","","","","","",""
