"rt","time_elapsed","subject","subID","group","day","trialType","phase","key_press","stim","stimNum","corrresp","hierarchy","trialNum","corr","responses"
"1461","1464","HierDy2b30jqj8","sub23","11","05","","","","","","","","","",""
"","3168","HierDy2b30jqj8","sub23","11","05","fullscreen","","","","","","","","",""
"2603.999999999999","5773","HierDy2b30jqj8","sub23","11","05","","prac","","","","","","","",""
"3818","9596","HierDy2b30jqj8","sub23","11","05","","","32","","","","","","",""
"2129","11727","HierDy2b30jqj8","sub23","11","05","","prac","","","","","","","",""
"863","12593","HierDy2b30jqj8","sub23","11","05","rl","test","83","img/o_c_diag.png","2","83","shape,color,pattern","1","1",""
"null","13596","HierDy2b30jqj8","sub23","11","05","feedback","test","null","","","na","","1","",""
"546.9999999999982","14147","HierDy2b30jqj8","sub23","11","05","rl","test","75","img/p_s_dots.png","7","75","shape,color,pattern","2","1",""
"null","15150","HierDy2b30jqj8","sub23","11","05","feedback","test","null","","","na","","2","",""
"752","15904","HierDy2b30jqj8","sub23","11","05","rl","test","72","img/o_s_dots.png","5","72","shape,color,pattern","3","1",""
"null","16908","HierDy2b30jqj8","sub23","11","05","feedback","test","null","","","na","","3","",""
"649","17559","HierDy2b30jqj8","sub23","11","05","rl","test","65","img/o_c_dots.png","1","65","shape,color,pattern","4","1",""
"null","18561","HierDy2b30jqj8","sub23","11","05","feedback","test","null","","","na","","4","",""
"883","19444","HierDy2b30jqj8","sub23","11","05","rl","test","70","img/p_c_diag.png","4","70","shape,color,pattern","5","1",""
"null","20447","HierDy2b30jqj8","sub23","11","05","feedback","test","null","","","na","","5","",""
"791","21241","HierDy2b30jqj8","sub23","11","05","rl","test","74","img/o_s_diag.png","6","74","shape,color,pattern","6","1",""
"null","22244","HierDy2b30jqj8","sub23","11","05","feedback","test","null","","","na","","6","",""
"985","23232","HierDy2b30jqj8","sub23","11","05","rl","test","68","img/p_c_dots.png","3","68","shape,color,pattern","7","1",""
"null","24235","HierDy2b30jqj8","sub23","11","05","feedback","test","null","","","na","","7","",""
"844","25080","HierDy2b30jqj8","sub23","11","05","rl","test","74","img/o_s_diag.png","6","74","shape,color,pattern","8","1",""
"null","26083","HierDy2b30jqj8","sub23","11","05","feedback","test","null","","","na","","8","",""
"633","26719","HierDy2b30jqj8","sub23","11","05","rl","test","65","img/o_c_dots.png","1","65","shape,color,pattern","9","1",""
"null","27723","HierDy2b30jqj8","sub23","11","05","feedback","test","null","","","na","","9","",""
"697.0000000000036","28422","HierDy2b30jqj8","sub23","11","05","rl","test","76","img/p_s_diag.png","8","76","shape,color,pattern","10","1",""
"null","29426","HierDy2b30jqj8","sub23","11","05","feedback","test","null","","","na","","10","",""
"635.9999999999927","30063","HierDy2b30jqj8","sub23","11","05","rl","test","76","img/p_s_diag.png","8","76","shape,color,pattern","11","1",""
"null","31066","HierDy2b30jqj8","sub23","11","05","feedback","test","null","","","na","","11","",""
"740","31808","HierDy2b30jqj8","sub23","11","05","rl","test","68","img/p_c_dots.png","3","68","shape,color,pattern","12","1",""
"null","32811","HierDy2b30jqj8","sub23","11","05","feedback","test","null","","","na","","12","",""
"729","33542","HierDy2b30jqj8","sub23","11","05","rl","test","72","img/o_s_dots.png","5","72","shape,color,pattern","13","1",""
"null","34545","HierDy2b30jqj8","sub23","11","05","feedback","test","null","","","na","","13","",""
"695","35243","HierDy2b30jqj8","sub23","11","05","rl","test","83","img/o_c_diag.png","2","83","shape,color,pattern","14","1",""
"null","36244","HierDy2b30jqj8","sub23","11","05","feedback","test","null","","","na","","14","",""
"712","36958","HierDy2b30jqj8","sub23","11","05","rl","test","72","img/o_s_dots.png","5","72","shape,color,pattern","15","1",""
"null","37961","HierDy2b30jqj8","sub23","11","05","feedback","test","null","","","na","","15","",""
"689","38653","HierDy2b30jqj8","sub23","11","05","rl","test","75","img/p_s_dots.png","7","75","shape,color,pattern","16","1",""
"null","39656","HierDy2b30jqj8","sub23","11","05","feedback","test","null","","","na","","16","",""
"590","40246","HierDy2b30jqj8","sub23","11","05","rl","test","70","img/p_c_diag.png","4","70","shape,color,pattern","17","1",""
"null","41249","HierDy2b30jqj8","sub23","11","05","feedback","test","null","","","na","","17","",""
"573","41825","HierDy2b30jqj8","sub23","11","05","rl","test","83","img/o_c_diag.png","2","83","shape,color,pattern","18","1",""
"null","42829","HierDy2b30jqj8","sub23","11","05","feedback","test","null","","","na","","18","",""
"564","43395","HierDy2b30jqj8","sub23","11","05","rl","test","75","img/p_c_dots.png","3","68","shape,color,pattern","19","0",""
"null","44398","HierDy2b30jqj8","sub23","11","05","feedback","test","null","","","na","","19","",""
"669","45071","HierDy2b30jqj8","sub23","11","05","rl","test","76","img/p_s_diag.png","8","76","shape,color,pattern","20","1",""
"null","46074","HierDy2b30jqj8","sub23","11","05","feedback","test","null","","","na","","20","",""
"1057","47133","HierDy2b30jqj8","sub23","11","05","rl","test","74","img/o_s_diag.png","6","74","shape,color,pattern","21","1",""
"null","48135","HierDy2b30jqj8","sub23","11","05","feedback","test","null","","","na","","21","",""
"787","48925","HierDy2b30jqj8","sub23","11","05","rl","test","75","img/p_s_dots.png","7","75","shape,color,pattern","22","1",""
"null","49927","HierDy2b30jqj8","sub23","11","05","feedback","test","null","","","na","","22","",""
"591","50519","HierDy2b30jqj8","sub23","11","05","rl","test","65","img/o_c_dots.png","1","65","shape,color,pattern","23","1",""
"null","51522","HierDy2b30jqj8","sub23","11","05","feedback","test","null","","","na","","23","",""
"696.0000000000073","52219","HierDy2b30jqj8","sub23","11","05","rl","test","70","img/p_s_diag.png","8","76","shape,color,pattern","24","0",""
"null","53222","HierDy2b30jqj8","sub23","11","05","feedback","test","null","","","na","","24","",""
"1032","54257","HierDy2b30jqj8","sub23","11","05","rl","test","70","img/p_c_diag.png","4","70","shape,color,pattern","25","1",""
"null","55259","HierDy2b30jqj8","sub23","11","05","feedback","test","null","","","na","","25","",""
"1024","56285","HierDy2b30jqj8","sub23","11","05","rl","test","65","img/o_c_dots.png","1","65","shape,color,pattern","26","1",""
"null","57289","HierDy2b30jqj8","sub23","11","05","feedback","test","null","","","na","","26","",""
"1637","58928","HierDy2b30jqj8","sub23","11","05","rl","test","74","img/o_s_dots.png","5","72","shape,color,pattern","27","0",""
"null","59931","HierDy2b30jqj8","sub23","11","05","feedback","test","null","","","na","","27","",""
"697","60630","HierDy2b30jqj8","sub23","11","05","rl","test","83","img/o_c_diag.png","2","83","shape,color,pattern","28","1",""
"null","61633","HierDy2b30jqj8","sub23","11","05","feedback","test","null","","","na","","28","",""
"807.9999999999927","62442","HierDy2b30jqj8","sub23","11","05","rl","test","83","img/o_c_diag.png","2","83","shape,color,pattern","29","1",""
"null","63445","HierDy2b30jqj8","sub23","11","05","feedback","test","null","","","na","","29","",""
"595","64043","HierDy2b30jqj8","sub23","11","05","rl","test","70","img/p_c_dots.png","3","68","shape,color,pattern","30","0",""
"null","65045","HierDy2b30jqj8","sub23","11","05","feedback","test","null","","","na","","30","",""
"760","65807","HierDy2b30jqj8","sub23","11","05","rl","test","70","img/p_c_diag.png","4","70","shape,color,pattern","31","1",""
"null","66810","HierDy2b30jqj8","sub23","11","05","feedback","test","null","","","na","","31","",""
"798","67610","HierDy2b30jqj8","sub23","11","05","rl","test","74","img/o_s_diag.png","6","74","shape,color,pattern","32","1",""
"null","68613","HierDy2b30jqj8","sub23","11","05","feedback","test","null","","","na","","32","",""
"729","69344","HierDy2b30jqj8","sub23","11","05","rl","test","70","img/p_c_diag.png","4","70","shape,color,pattern","33","1",""
"null","70346","HierDy2b30jqj8","sub23","11","05","feedback","test","null","","","na","","33","",""
"634","70981","HierDy2b30jqj8","sub23","11","05","rl","test","72","img/o_s_dots.png","5","72","shape,color,pattern","34","1",""
"null","71985","HierDy2b30jqj8","sub23","11","05","feedback","test","null","","","na","","34","",""
"601","72587","HierDy2b30jqj8","sub23","11","05","rl","test","75","img/p_s_dots.png","7","75","shape,color,pattern","35","1",""
"null","73590","HierDy2b30jqj8","sub23","11","05","feedback","test","null","","","na","","35","",""
"753","74345","HierDy2b30jqj8","sub23","11","05","rl","test","75","img/p_s_dots.png","7","75","shape,color,pattern","36","1",""
"null","75348","HierDy2b30jqj8","sub23","11","05","feedback","test","null","","","na","","36","",""
"1136","76485","HierDy2b30jqj8","sub23","11","05","rl","test","74","img/o_s_diag.png","6","74","shape,color,pattern","37","1",""
"null","77490","HierDy2b30jqj8","sub23","11","05","feedback","test","null","","","na","","37","",""
"639","78131","HierDy2b30jqj8","sub23","11","05","rl","test","76","img/p_s_diag.png","8","76","shape,color,pattern","38","1",""
"null","79135","HierDy2b30jqj8","sub23","11","05","feedback","test","null","","","na","","38","",""
"876.0000000000146","80013","HierDy2b30jqj8","sub23","11","05","rl","test","68","img/p_c_dots.png","3","68","shape,color,pattern","39","1",""
"null","81016","HierDy2b30jqj8","sub23","11","05","feedback","test","null","","","na","","39","",""
"652","81670","HierDy2b30jqj8","sub23","11","05","rl","test","65","img/o_c_dots.png","1","65","shape,color,pattern","40","1",""
"null","82673","HierDy2b30jqj8","sub23","11","05","feedback","test","null","","","na","","40","",""
"646","83321","HierDy2b30jqj8","sub23","11","05","rl","test","76","img/p_s_diag.png","8","76","shape,color,pattern","41","1",""
"null","84324","HierDy2b30jqj8","sub23","11","05","feedback","test","null","","","na","","41","",""
"725","85050","HierDy2b30jqj8","sub23","11","05","rl","test","72","img/o_s_dots.png","5","72","shape,color,pattern","42","1",""
"null","86052","HierDy2b30jqj8","sub23","11","05","feedback","test","null","","","na","","42","",""
"696","86750","HierDy2b30jqj8","sub23","11","05","rl","test","68","img/p_c_dots.png","3","68","shape,color,pattern","43","1",""
"null","87752","HierDy2b30jqj8","sub23","11","05","feedback","test","null","","","na","","43","",""
"695.9999999999854","88451","HierDy2b30jqj8","sub23","11","05","rl","test","83","img/o_c_diag.png","2","83","shape,color,pattern","44","1",""
"null","89453","HierDy2b30jqj8","sub23","11","05","feedback","test","null","","","na","","44","",""
"939","90394","HierDy2b30jqj8","sub23","11","05","rl","test","75","img/p_s_dots.png","7","75","shape,color,pattern","45","1",""
"null","91397","HierDy2b30jqj8","sub23","11","05","feedback","test","null","","","na","","45","",""
"1334","92733","HierDy2b30jqj8","sub23","11","05","rl","test","65","img/o_c_dots.png","1","65","shape,color,pattern","46","1",""
"null","93736","HierDy2b30jqj8","sub23","11","05","feedback","test","null","","","na","","46","",""
"930","94669","HierDy2b30jqj8","sub23","11","05","rl","test","75","img/o_s_diag.png","6","74","shape,color,pattern","47","0",""
"null","95672","HierDy2b30jqj8","sub23","11","05","feedback","test","null","","","na","","47","",""
"824.0000000000146","96498","HierDy2b30jqj8","sub23","11","05","rl","test","70","img/p_c_diag.png","4","70","shape,color,pattern","48","1",""
"null","97502","HierDy2b30jqj8","sub23","11","05","feedback","test","null","","","na","","48","",""
"1168.9999999999854","98673","HierDy2b30jqj8","sub23","11","05","rl","test","74","img/o_s_diag.png","6","74","shape,color,pattern","49","1",""
"null","99676","HierDy2b30jqj8","sub23","11","05","feedback","test","null","","","na","","49","",""
"672","100350","HierDy2b30jqj8","sub23","11","05","rl","test","65","img/o_c_dots.png","1","65","shape,color,pattern","50","1",""
"null","101353","HierDy2b30jqj8","sub23","11","05","feedback","test","null","","","na","","50","",""
"972","102327","HierDy2b30jqj8","sub23","11","05","rl","test","68","img/p_c_dots.png","3","68","shape,color,pattern","51","1",""
"null","103330","HierDy2b30jqj8","sub23","11","05","feedback","test","null","","","na","","51","",""
"1194","104525","HierDy2b30jqj8","sub23","11","05","rl","test","75","img/p_s_dots.png","7","75","shape,color,pattern","52","1",""
"null","105528","HierDy2b30jqj8","sub23","11","05","feedback","test","null","","","na","","52","",""
"781","106310","HierDy2b30jqj8","sub23","11","05","rl","test","76","img/p_s_diag.png","8","76","shape,color,pattern","53","1",""
"null","107313","HierDy2b30jqj8","sub23","11","05","feedback","test","null","","","na","","53","",""
"1486","108801","HierDy2b30jqj8","sub23","11","05","rl","test","70","img/p_c_diag.png","4","70","shape,color,pattern","54","1",""
"null","109804","HierDy2b30jqj8","sub23","11","05","feedback","test","null","","","na","","54","",""
"1263","111069","HierDy2b30jqj8","sub23","11","05","rl","test","83","img/o_c_diag.png","2","83","shape,color,pattern","55","1",""
"null","112072","HierDy2b30jqj8","sub23","11","05","feedback","test","null","","","na","","55","",""
"835","112910","HierDy2b30jqj8","sub23","11","05","rl","test","76","img/p_s_diag.png","8","76","shape,color,pattern","56","1",""
"null","113913","HierDy2b30jqj8","sub23","11","05","feedback","test","null","","","na","","56","",""
"860","114775","HierDy2b30jqj8","sub23","11","05","rl","test","72","img/o_s_dots.png","5","72","shape,color,pattern","57","1",""
"null","115779","HierDy2b30jqj8","sub23","11","05","feedback","test","null","","","na","","57","",""
"1290.9999999999854","117071","HierDy2b30jqj8","sub23","11","05","rl","test","72","img/o_s_dots.png","5","72","shape,color,pattern","58","1",""
"null","118074","HierDy2b30jqj8","sub23","11","05","feedback","test","null","","","na","","58","",""
"1162","119238","HierDy2b30jqj8","sub23","11","05","rl","test","70","img/p_c_diag.png","4","70","shape,color,pattern","59","1",""
"null","120240","HierDy2b30jqj8","sub23","11","05","feedback","test","null","","","na","","59","",""
"907","121149","HierDy2b30jqj8","sub23","11","05","rl","test","75","img/p_s_dots.png","7","75","shape,color,pattern","60","1",""
"null","122152","HierDy2b30jqj8","sub23","11","05","feedback","test","null","","","na","","60","",""
"804","122959","HierDy2b30jqj8","sub23","11","05","rl","test","83","img/o_s_diag.png","6","74","shape,color,pattern","61","0",""
"null","123962","HierDy2b30jqj8","sub23","11","05","feedback","test","null","","","na","","61","",""
"528","124493","HierDy2b30jqj8","sub23","11","05","rl","test","83","img/o_c_diag.png","2","83","shape,color,pattern","62","1",""
"null","125496","HierDy2b30jqj8","sub23","11","05","feedback","test","null","","","na","","62","",""
"782.0000000000146","126280","HierDy2b30jqj8","sub23","11","05","rl","test","65","img/o_c_dots.png","1","65","shape,color,pattern","63","1",""
"null","127284","HierDy2b30jqj8","sub23","11","05","feedback","test","null","","","na","","63","",""
"1162.0000000000146","128448","HierDy2b30jqj8","sub23","11","05","rl","test","68","img/p_c_dots.png","3","68","shape,color,pattern","64","1",""
"null","129451","HierDy2b30jqj8","sub23","11","05","feedback","test","null","","","na","","64","",""
"575","130028","HierDy2b30jqj8","sub23","11","05","rl","test","68","img/p_c_dots.png","3","68","shape,color,pattern","65","1",""
"null","131032","HierDy2b30jqj8","sub23","11","05","feedback","test","null","","","na","","65","",""
"597","131632","HierDy2b30jqj8","sub23","11","05","rl","test","70","img/p_s_diag.png","8","76","shape,color,pattern","66","0",""
"null","132636","HierDy2b30jqj8","sub23","11","05","feedback","test","null","","","na","","66","",""
"817.0000000000291","133455","HierDy2b30jqj8","sub23","11","05","rl","test","65","img/o_c_dots.png","1","65","shape,color,pattern","67","1",""
"null","134458","HierDy2b30jqj8","sub23","11","05","feedback","test","null","","","na","","67","",""
"1067.999999999971","135528","HierDy2b30jqj8","sub23","11","05","rl","test","68","img/p_c_diag.png","4","70","shape,color,pattern","68","0",""
"null","136531","HierDy2b30jqj8","sub23","11","05","feedback","test","null","","","na","","68","",""
"985","137518","HierDy2b30jqj8","sub23","11","05","rl","test","72","img/o_s_dots.png","5","72","shape,color,pattern","69","1",""
"null","138522","HierDy2b30jqj8","sub23","11","05","feedback","test","null","","","na","","69","",""
"830","139354","HierDy2b30jqj8","sub23","11","05","rl","test","75","img/p_s_dots.png","7","75","shape,color,pattern","70","1",""
"null","140357","HierDy2b30jqj8","sub23","11","05","feedback","test","null","","","na","","70","",""
"1134.999999999971","141494","HierDy2b30jqj8","sub23","11","05","rl","test","76","img/p_s_diag.png","8","76","shape,color,pattern","71","1",""
"null","142498","HierDy2b30jqj8","sub23","11","05","feedback","test","null","","","na","","71","",""
"753","143253","HierDy2b30jqj8","sub23","11","05","rl","test","75","img/p_s_dots.png","7","75","shape,color,pattern","72","1",""
"null","144256","HierDy2b30jqj8","sub23","11","05","feedback","test","null","","","na","","72","",""
"766","145023","HierDy2b30jqj8","sub23","11","05","rl","test","83","img/o_c_diag.png","2","83","shape,color,pattern","73","1",""
"null","146026","HierDy2b30jqj8","sub23","11","05","feedback","test","null","","","na","","73","",""
"790","146819","HierDy2b30jqj8","sub23","11","05","rl","test","74","img/o_s_diag.png","6","74","shape,color,pattern","74","1",""
"null","147823","HierDy2b30jqj8","sub23","11","05","feedback","test","null","","","na","","74","",""
"719","148544","HierDy2b30jqj8","sub23","11","05","rl","test","72","img/o_s_dots.png","5","72","shape,color,pattern","75","1",""
"null","149548","HierDy2b30jqj8","sub23","11","05","feedback","test","null","","","na","","75","",""
"1074","150624","HierDy2b30jqj8","sub23","11","05","rl","test","83","img/o_c_diag.png","2","83","shape,color,pattern","76","1",""
"null","151626","HierDy2b30jqj8","sub23","11","05","feedback","test","null","","","na","","76","",""
"805","152433","HierDy2b30jqj8","sub23","11","05","rl","test","70","img/p_c_diag.png","4","70","shape,color,pattern","77","1",""
"null","153436","HierDy2b30jqj8","sub23","11","05","feedback","test","null","","","na","","77","",""
"1183.000000000029","154621","HierDy2b30jqj8","sub23","11","05","rl","test","83","img/o_s_diag.png","6","74","shape,color,pattern","78","0",""
"null","155625","HierDy2b30jqj8","sub23","11","05","feedback","test","null","","","na","","78","",""
"1253.999999999971","156881","HierDy2b30jqj8","sub23","11","05","rl","test","68","img/p_c_dots.png","3","68","shape,color,pattern","79","1",""
"null","157884","HierDy2b30jqj8","sub23","11","05","feedback","test","null","","","na","","79","",""
"656","158542","HierDy2b30jqj8","sub23","11","05","rl","test","75","img/p_s_dots.png","7","75","shape,color,pattern","80","1",""
"null","159545","HierDy2b30jqj8","sub23","11","05","feedback","test","null","","","na","","80","",""
"720","160268","HierDy2b30jqj8","sub23","11","05","rl","test","65","img/o_c_dots.png","1","65","shape,color,pattern","81","1",""
"null","161270","HierDy2b30jqj8","sub23","11","05","feedback","test","null","","","na","","81","",""
"829","162101","HierDy2b30jqj8","sub23","11","05","rl","test","70","img/p_c_diag.png","4","70","shape,color,pattern","82","1",""
"null","163105","HierDy2b30jqj8","sub23","11","05","feedback","test","null","","","na","","82","",""
"889.0000000000291","163997","HierDy2b30jqj8","sub23","11","05","rl","test","65","img/o_c_dots.png","1","65","shape,color,pattern","83","1",""
"null","164999","HierDy2b30jqj8","sub23","11","05","feedback","test","null","","","na","","83","",""
"528","165529","HierDy2b30jqj8","sub23","11","05","rl","test","65","img/o_c_dots.png","1","65","shape,color,pattern","84","1",""
"null","166531","HierDy2b30jqj8","sub23","11","05","feedback","test","null","","","na","","84","",""
"1076.000000000029","167609","HierDy2b30jqj8","sub23","11","05","rl","test","74","img/o_s_diag.png","6","74","shape,color,pattern","85","1",""
"null","168611","HierDy2b30jqj8","sub23","11","05","feedback","test","null","","","na","","85","",""
"1183","169797","HierDy2b30jqj8","sub23","11","05","rl","test","76","img/p_s_diag.png","8","76","shape,color,pattern","86","1",""
"null","170802","HierDy2b30jqj8","sub23","11","05","feedback","test","null","","","na","","86","",""
"813","171618","HierDy2b30jqj8","sub23","11","05","rl","test","72","img/o_s_dots.png","5","72","shape,color,pattern","87","1",""
"null","172620","HierDy2b30jqj8","sub23","11","05","feedback","test","null","","","na","","87","",""
"753","173376","HierDy2b30jqj8","sub23","11","05","rl","test","83","img/o_c_diag.png","2","83","shape,color,pattern","88","1",""
"null","174379","HierDy2b30jqj8","sub23","11","05","feedback","test","null","","","na","","88","",""
"1090","175471","HierDy2b30jqj8","sub23","11","05","rl","test","68","img/p_c_dots.png","3","68","shape,color,pattern","89","1",""
"null","176474","HierDy2b30jqj8","sub23","11","05","feedback","test","null","","","na","","89","",""
"928","177403","HierDy2b30jqj8","sub23","11","05","rl","test","72","img/o_s_dots.png","5","72","shape,color,pattern","90","1",""
"null","178406","HierDy2b30jqj8","sub23","11","05","feedback","test","null","","","na","","90","",""
"883","179292","HierDy2b30jqj8","sub23","11","05","rl","test","75","img/p_s_dots.png","7","75","shape,color,pattern","91","1",""
"null","180293","HierDy2b30jqj8","sub23","11","05","feedback","test","null","","","na","","91","",""
"722","181018","HierDy2b30jqj8","sub23","11","05","rl","test","76","img/p_s_diag.png","8","76","shape,color,pattern","92","1",""
"null","182021","HierDy2b30jqj8","sub23","11","05","feedback","test","null","","","na","","92","",""
"889","182912","HierDy2b30jqj8","sub23","11","05","rl","test","83","img/p_c_dots.png","3","68","shape,color,pattern","93","0",""
"null","183916","HierDy2b30jqj8","sub23","11","05","feedback","test","null","","","na","","93","",""
"1318","185236","HierDy2b30jqj8","sub23","11","05","rl","test","74","img/o_s_diag.png","6","74","shape,color,pattern","94","1",""
"null","186239","HierDy2b30jqj8","sub23","11","05","feedback","test","null","","","na","","94","",""
"962.0000000000291","187204","HierDy2b30jqj8","sub23","11","05","rl","test","70","img/p_c_diag.png","4","70","shape,color,pattern","95","1",""
"null","188206","HierDy2b30jqj8","sub23","11","05","feedback","test","null","","","na","","95","",""
"840","189049","HierDy2b30jqj8","sub23","11","05","rl","test","83","img/o_c_diag.png","2","83","shape,color,pattern","96","1",""
"null","190051","HierDy2b30jqj8","sub23","11","05","feedback","test","null","","","na","","96","",""
"1898","191952","HierDy2b30jqj8","sub23","11","05","rl","test","75","img/o_s_diag.png","6","74","shape,color,pattern","97","0",""
"null","192955","HierDy2b30jqj8","sub23","11","05","feedback","test","null","","","na","","97","",""
"897","193855","HierDy2b30jqj8","sub23","11","05","rl","test","68","img/p_c_dots.png","3","68","shape,color,pattern","98","1",""
"null","194858","HierDy2b30jqj8","sub23","11","05","feedback","test","null","","","na","","98","",""
"799","195659","HierDy2b30jqj8","sub23","11","05","rl","test","65","img/o_c_dots.png","1","65","shape,color,pattern","99","1",""
"null","196662","HierDy2b30jqj8","sub23","11","05","feedback","test","null","","","na","","99","",""
"682.0000000000291","197346","HierDy2b30jqj8","sub23","11","05","rl","test","83","img/o_c_diag.png","2","83","shape,color,pattern","100","1",""
"null","198350","HierDy2b30jqj8","sub23","11","05","feedback","test","null","","","na","","100","",""
"732","199085","HierDy2b30jqj8","sub23","11","05","rl","test","83","img/o_c_diag.png","2","83","shape,color,pattern","101","1",""
"null","200087","HierDy2b30jqj8","sub23","11","05","feedback","test","null","","","na","","101","",""
"699","200788","HierDy2b30jqj8","sub23","11","05","rl","test","70","img/p_c_diag.png","4","70","shape,color,pattern","102","1",""
"null","201791","HierDy2b30jqj8","sub23","11","05","feedback","test","null","","","na","","102","",""
"1008","202802","HierDy2b30jqj8","sub23","11","05","rl","test","75","img/p_s_dots.png","7","75","shape,color,pattern","103","1",""
"null","203805","HierDy2b30jqj8","sub23","11","05","feedback","test","null","","","na","","103","",""
"656","204464","HierDy2b30jqj8","sub23","11","05","rl","test","72","img/o_s_dots.png","5","72","shape,color,pattern","104","1",""
"null","205468","HierDy2b30jqj8","sub23","11","05","feedback","test","null","","","na","","104","",""
"642","206113","HierDy2b30jqj8","sub23","11","05","rl","test","76","img/p_s_diag.png","8","76","shape,color,pattern","105","1",""
"null","207116","HierDy2b30jqj8","sub23","11","05","feedback","test","null","","","na","","105","",""
"631","207749","HierDy2b30jqj8","sub23","11","05","rl","test","72","img/o_s_dots.png","5","72","shape,color,pattern","106","1",""
"null","208752","HierDy2b30jqj8","sub23","11","05","feedback","test","null","","","na","","106","",""
"613","209367","HierDy2b30jqj8","sub23","11","05","rl","test","72","img/o_c_dots.png","1","65","shape,color,pattern","107","0",""
"null","210369","HierDy2b30jqj8","sub23","11","05","feedback","test","null","","","na","","107","",""
"921","211291","HierDy2b30jqj8","sub23","11","05","rl","test","68","img/p_c_dots.png","3","68","shape,color,pattern","108","1",""
"null","212294","HierDy2b30jqj8","sub23","11","05","feedback","test","null","","","na","","108","",""
"899","213195","HierDy2b30jqj8","sub23","11","05","rl","test","75","img/p_s_dots.png","7","75","shape,color,pattern","109","1",""
"null","214197","HierDy2b30jqj8","sub23","11","05","feedback","test","null","","","na","","109","",""
"704","214905","HierDy2b30jqj8","sub23","11","05","rl","test","76","img/p_s_diag.png","8","76","shape,color,pattern","110","1",""
"null","215908","HierDy2b30jqj8","sub23","11","05","feedback","test","null","","","na","","110","",""
"558","216468","HierDy2b30jqj8","sub23","11","05","rl","test","74","img/o_s_diag.png","6","74","shape,color,pattern","111","1",""
"null","217471","HierDy2b30jqj8","sub23","11","05","feedback","test","null","","","na","","111","",""
"463","217937","HierDy2b30jqj8","sub23","11","05","rl","test","74","img/o_s_diag.png","6","74","shape,color,pattern","112","1",""
"null","218940","HierDy2b30jqj8","sub23","11","05","feedback","test","null","","","na","","112","",""
"780","219722","HierDy2b30jqj8","sub23","11","05","rl","test","70","img/p_c_diag.png","4","70","shape,color,pattern","113","1",""
"null","220725","HierDy2b30jqj8","sub23","11","05","feedback","test","null","","","na","","113","",""
"609.9999999999709","221337","HierDy2b30jqj8","sub23","11","05","rl","test","65","img/o_c_dots.png","1","65","shape,color,pattern","114","1",""
"null","222341","HierDy2b30jqj8","sub23","11","05","feedback","test","null","","","na","","114","",""
"735","223079","HierDy2b30jqj8","sub23","11","05","rl","test","70","img/p_c_diag.png","4","70","shape,color,pattern","115","1",""
"null","224083","HierDy2b30jqj8","sub23","11","05","feedback","test","null","","","na","","115","",""
"642","224728","HierDy2b30jqj8","sub23","11","05","rl","test","83","img/o_c_diag.png","2","83","shape,color,pattern","116","1",""
"null","225732","HierDy2b30jqj8","sub23","11","05","feedback","test","null","","","na","","116","",""
"886","226621","HierDy2b30jqj8","sub23","11","05","rl","test","68","img/p_c_dots.png","3","68","shape,color,pattern","117","1",""
"null","227624","HierDy2b30jqj8","sub23","11","05","feedback","test","null","","","na","","117","",""
"969.0000000000291","228596","HierDy2b30jqj8","sub23","11","05","rl","test","76","img/p_s_diag.png","8","76","shape,color,pattern","118","1",""
"null","229599","HierDy2b30jqj8","sub23","11","05","feedback","test","null","","","na","","118","",""
"658.9999999999709","230260","HierDy2b30jqj8","sub23","11","05","rl","test","75","img/p_s_dots.png","7","75","shape,color,pattern","119","1",""
"null","231263","HierDy2b30jqj8","sub23","11","05","feedback","test","null","","","na","","119","",""
"629","231895","HierDy2b30jqj8","sub23","11","05","rl","test","72","img/o_s_dots.png","5","72","shape,color,pattern","120","1",""
"null","232899","HierDy2b30jqj8","sub23","11","05","feedback","test","null","","","na","","120","",""
"631","233532","HierDy2b30jqj8","sub23","11","05","rl","test","76","img/p_s_diag.png","8","76","shape,color,pattern","121","1",""
"null","234535","HierDy2b30jqj8","sub23","11","05","feedback","test","null","","","na","","121","",""
"612.0000000000291","235149","HierDy2b30jqj8","sub23","11","05","rl","test","72","img/o_s_dots.png","5","72","shape,color,pattern","122","1",""
"null","236152","HierDy2b30jqj8","sub23","11","05","feedback","test","null","","","na","","122","",""
"623","236778","HierDy2b30jqj8","sub23","11","05","rl","test","74","img/o_s_diag.png","6","74","shape,color,pattern","123","1",""
"null","237781","HierDy2b30jqj8","sub23","11","05","feedback","test","null","","","na","","123","",""
"795","238579","HierDy2b30jqj8","sub23","11","05","rl","test","70","img/p_c_diag.png","4","70","shape,color,pattern","124","1",""
"null","239582","HierDy2b30jqj8","sub23","11","05","feedback","test","null","","","na","","124","",""
"832","240416","HierDy2b30jqj8","sub23","11","05","rl","test","75","img/p_s_dots.png","7","75","shape,color,pattern","125","1",""
"null","241419","HierDy2b30jqj8","sub23","11","05","feedback","test","null","","","na","","125","",""
"875","242297","HierDy2b30jqj8","sub23","11","05","rl","test","65","img/o_c_dots.png","1","65","shape,color,pattern","126","1",""
"null","243300","HierDy2b30jqj8","sub23","11","05","feedback","test","null","","","na","","126","",""
"743","244046","HierDy2b30jqj8","sub23","11","05","rl","test","68","img/p_c_dots.png","3","68","shape,color,pattern","127","1",""
"null","245048","HierDy2b30jqj8","sub23","11","05","feedback","test","null","","","na","","127","",""
"1096","246145","HierDy2b30jqj8","sub23","11","05","rl","test","75","img/p_s_dots.png","7","75","shape,color,pattern","128","1",""
"null","247149","HierDy2b30jqj8","sub23","11","05","feedback","test","null","","","na","","128","",""
"645","247796","HierDy2b30jqj8","sub23","11","05","rl","test","83","img/o_c_diag.png","2","83","shape,color,pattern","129","1",""
"null","248798","HierDy2b30jqj8","sub23","11","05","feedback","test","null","","","na","","129","",""
"744","249544","HierDy2b30jqj8","sub23","11","05","rl","test","65","img/o_c_dots.png","1","65","shape,color,pattern","130","1",""
"null","250547","HierDy2b30jqj8","sub23","11","05","feedback","test","null","","","na","","130","",""
"643.9999999999709","251192","HierDy2b30jqj8","sub23","11","05","rl","test","70","img/p_c_diag.png","4","70","shape,color,pattern","131","1",""
"null","252195","HierDy2b30jqj8","sub23","11","05","feedback","test","null","","","na","","131","",""
"1283","253480","HierDy2b30jqj8","sub23","11","05","rl","test","75","img/p_c_dots.png","3","68","shape,color,pattern","132","0",""
"null","254483","HierDy2b30jqj8","sub23","11","05","feedback","test","null","","","na","","132","",""
"769.9999999999709","255254","HierDy2b30jqj8","sub23","11","05","rl","test","76","img/p_s_diag.png","8","76","shape,color,pattern","133","1",""
"null","256257","HierDy2b30jqj8","sub23","11","05","feedback","test","null","","","na","","133","",""
"744.0000000000291","257003","HierDy2b30jqj8","sub23","11","05","rl","test","83","img/o_c_diag.png","2","83","shape,color,pattern","134","1",""
"null","258008","HierDy2b30jqj8","sub23","11","05","feedback","test","null","","","na","","134","",""
"895","258906","HierDy2b30jqj8","sub23","11","05","rl","test","72","img/o_s_dots.png","5","72","shape,color,pattern","135","1",""
"null","259910","HierDy2b30jqj8","sub23","11","05","feedback","test","null","","","na","","135","",""
"674.9999999999709","260587","HierDy2b30jqj8","sub23","11","05","rl","test","72","img/o_s_dots.png","5","72","shape,color,pattern","136","1",""
"null","261590","HierDy2b30jqj8","sub23","11","05","feedback","test","null","","","na","","136","",""
"765","262358","HierDy2b30jqj8","sub23","11","05","rl","test","74","img/o_s_diag.png","6","74","shape,color,pattern","137","1",""
"null","263361","HierDy2b30jqj8","sub23","11","05","feedback","test","null","","","na","","137","",""
"671","264034","HierDy2b30jqj8","sub23","11","05","rl","test","65","img/o_c_dots.png","1","65","shape,color,pattern","138","1",""
"null","265038","HierDy2b30jqj8","sub23","11","05","feedback","test","null","","","na","","138","",""
"1075.9999999999418","266115","HierDy2b30jqj8","sub23","11","05","rl","test","74","img/o_s_diag.png","6","74","shape,color,pattern","139","1",""
"null","267118","HierDy2b30jqj8","sub23","11","05","feedback","test","null","","","na","","139","",""
"869","267990","HierDy2b30jqj8","sub23","11","05","rl","test","76","img/p_s_diag.png","8","76","shape,color,pattern","140","1",""
"null","268993","HierDy2b30jqj8","sub23","11","05","feedback","test","null","","","na","","140","",""
"807","269803","HierDy2b30jqj8","sub23","11","05","rl","test","68","img/p_c_dots.png","3","68","shape,color,pattern","141","1",""
"null","270806","HierDy2b30jqj8","sub23","11","05","feedback","test","null","","","na","","141","",""
"798","271606","HierDy2b30jqj8","sub23","11","05","rl","test","70","img/p_c_diag.png","4","70","shape,color,pattern","142","1",""
"null","272610","HierDy2b30jqj8","sub23","11","05","feedback","test","null","","","na","","142","",""
"911","273524","HierDy2b30jqj8","sub23","11","05","rl","test","75","img/p_s_dots.png","7","75","shape,color,pattern","143","1",""
"null","274528","HierDy2b30jqj8","sub23","11","05","feedback","test","null","","","na","","143","",""
"749","275278","HierDy2b30jqj8","sub23","11","05","rl","test","72","img/o_c_dots.png","1","65","shape,color,pattern","144","0",""
"null","276281","HierDy2b30jqj8","sub23","11","05","feedback","test","null","","","na","","144","",""
"784","277068","HierDy2b30jqj8","sub23","11","05","rl","test","68","img/p_c_dots.png","3","68","shape,color,pattern","145","1",""
"null","278071","HierDy2b30jqj8","sub23","11","05","feedback","test","null","","","na","","145","",""
"670","278743","HierDy2b30jqj8","sub23","11","05","rl","test","83","img/o_c_diag.png","2","83","shape,color,pattern","146","1",""
"null","279747","HierDy2b30jqj8","sub23","11","05","feedback","test","null","","","na","","146","",""
"655","280403","HierDy2b30jqj8","sub23","11","05","rl","test","68","img/o_c_diag.png","2","83","shape,color,pattern","147","0",""
"null","281406","HierDy2b30jqj8","sub23","11","05","feedback","test","null","","","na","","147","",""
"685","282094","HierDy2b30jqj8","sub23","11","05","rl","test","76","img/p_s_diag.png","8","76","shape,color,pattern","148","1",""
"null","283096","HierDy2b30jqj8","sub23","11","05","feedback","test","null","","","na","","148","",""
"796","283895","HierDy2b30jqj8","sub23","11","05","rl","test","75","img/p_s_dots.png","7","75","shape,color,pattern","149","1",""
"null","284898","HierDy2b30jqj8","sub23","11","05","feedback","test","null","","","na","","149","",""
"1451","286352","HierDy2b30jqj8","sub23","11","05","rl","test","83","img/o_c_diag.png","2","83","shape,color,pattern","150","1",""
"null","287356","HierDy2b30jqj8","sub23","11","05","feedback","test","null","","","na","","150","",""
"916","288274","HierDy2b30jqj8","sub23","11","05","rl","test","72","img/o_s_dots.png","5","72","shape,color,pattern","151","1",""
"null","289277","HierDy2b30jqj8","sub23","11","05","feedback","test","null","","","na","","151","",""
"645","289925","HierDy2b30jqj8","sub23","11","05","rl","test","70","img/p_c_diag.png","4","70","shape,color,pattern","152","1",""
"null","290928","HierDy2b30jqj8","sub23","11","05","feedback","test","null","","","na","","152","",""
"949","291881","HierDy2b30jqj8","sub23","11","05","rl","test","75","img/o_s_diag.png","6","74","shape,color,pattern","153","0",""
"null","292885","HierDy2b30jqj8","sub23","11","05","feedback","test","null","","","na","","153","",""
"1379","294267","HierDy2b30jqj8","sub23","11","05","rl","test","68","img/p_c_dots.png","3","68","shape,color,pattern","154","1",""
"null","295270","HierDy2b30jqj8","sub23","11","05","feedback","test","null","","","na","","154","",""
"689","295961","HierDy2b30jqj8","sub23","11","05","rl","test","70","img/p_c_diag.png","4","70","shape,color,pattern","155","1",""
"null","296964","HierDy2b30jqj8","sub23","11","05","feedback","test","null","","","na","","155","",""
"1061.9999999999418","298029","HierDy2b30jqj8","sub23","11","05","rl","test","72","img/o_s_dots.png","5","72","shape,color,pattern","156","1",""
"null","299032","HierDy2b30jqj8","sub23","11","05","feedback","test","null","","","na","","156","",""
"1093.0000000000582","300128","HierDy2b30jqj8","sub23","11","05","rl","test","74","img/o_s_diag.png","6","74","shape,color,pattern","157","1",""
"null","301131","HierDy2b30jqj8","sub23","11","05","feedback","test","null","","","na","","157","",""
"854","301988","HierDy2b30jqj8","sub23","11","05","rl","test","75","img/p_s_dots.png","7","75","shape,color,pattern","158","1",""
"null","302991","HierDy2b30jqj8","sub23","11","05","feedback","test","null","","","na","","158","",""
"816","303809","HierDy2b30jqj8","sub23","11","05","rl","test","65","img/o_c_dots.png","1","65","shape,color,pattern","159","1",""
"null","304813","HierDy2b30jqj8","sub23","11","05","feedback","test","null","","","na","","159","",""
"1069","305884","HierDy2b30jqj8","sub23","11","05","rl","test","75","img/p_s_dots.png","7","75","shape,color,pattern","160","1",""
"null","306886","HierDy2b30jqj8","sub23","11","05","feedback","test","null","","","na","","160","",""
"629","307517","HierDy2b30jqj8","sub23","11","05","rl","test","76","img/p_s_diag.png","8","76","shape,color,pattern","161","1",""
"null","308523","HierDy2b30jqj8","sub23","11","05","feedback","test","null","","","na","","161","",""
"583","309108","HierDy2b30jqj8","sub23","11","05","rl","test","76","img/p_s_diag.png","8","76","shape,color,pattern","162","1",""
"null","310111","HierDy2b30jqj8","sub23","11","05","feedback","test","null","","","na","","162","",""
"675","310788","HierDy2b30jqj8","sub23","11","05","rl","test","72","img/o_s_dots.png","5","72","shape,color,pattern","163","1",""
"null","311791","HierDy2b30jqj8","sub23","11","05","feedback","test","null","","","na","","163","",""
"977","312770","HierDy2b30jqj8","sub23","11","05","rl","test","65","img/o_c_dots.png","1","65","shape,color,pattern","164","1",""
"null","313773","HierDy2b30jqj8","sub23","11","05","feedback","test","null","","","na","","164","",""
"666.9999999999418","314443","HierDy2b30jqj8","sub23","11","05","rl","test","83","img/o_c_diag.png","2","83","shape,color,pattern","165","1",""
"null","315446","HierDy2b30jqj8","sub23","11","05","feedback","test","null","","","na","","165","",""
"658","316106","HierDy2b30jqj8","sub23","11","05","rl","test","70","img/p_c_diag.png","4","70","shape,color,pattern","166","1",""
"null","317108","HierDy2b30jqj8","sub23","11","05","feedback","test","null","","","na","","166","",""
"647","317758","HierDy2b30jqj8","sub23","11","05","rl","test","68","img/p_c_dots.png","3","68","shape,color,pattern","167","1",""
"null","318761","HierDy2b30jqj8","sub23","11","05","feedback","test","null","","","na","","167","",""
"774.9999999999418","319540","HierDy2b30jqj8","sub23","11","05","rl","test","74","img/o_s_diag.png","6","74","shape,color,pattern","168","1",""
"null","320543","HierDy2b30jqj8","sub23","11","05","feedback","test","null","","","na","","168","",""
"845","321390","HierDy2b30jqj8","sub23","11","05","rl","test","68","img/p_c_dots.png","3","68","shape,color,pattern","169","1",""
"null","322394","HierDy2b30jqj8","sub23","11","05","feedback","test","null","","","na","","169","",""
"660","323056","HierDy2b30jqj8","sub23","11","05","rl","test","72","img/o_s_dots.png","5","72","shape,color,pattern","170","1",""
"null","324059","HierDy2b30jqj8","sub23","11","05","feedback","test","null","","","na","","170","",""
"1022","325083","HierDy2b30jqj8","sub23","11","05","rl","test","74","img/o_s_diag.png","6","74","shape,color,pattern","171","1",""
"null","326086","HierDy2b30jqj8","sub23","11","05","feedback","test","null","","","na","","171","",""
"899","326987","HierDy2b30jqj8","sub23","11","05","rl","test","75","img/p_s_dots.png","7","75","shape,color,pattern","172","1",""
"null","327990","HierDy2b30jqj8","sub23","11","05","feedback","test","null","","","na","","172","",""
"661","328655","HierDy2b30jqj8","sub23","11","05","rl","test","83","img/o_c_diag.png","2","83","shape,color,pattern","173","1",""
"null","329659","HierDy2b30jqj8","sub23","11","05","feedback","test","null","","","na","","173","",""
"733","330394","HierDy2b30jqj8","sub23","11","05","rl","test","65","img/o_c_dots.png","1","65","shape,color,pattern","174","1",""
"null","331397","HierDy2b30jqj8","sub23","11","05","feedback","test","null","","","na","","174","",""
"524","331924","HierDy2b30jqj8","sub23","11","05","rl","test","65","img/o_c_dots.png","1","65","shape,color,pattern","175","1",""
"null","332928","HierDy2b30jqj8","sub23","11","05","feedback","test","null","","","na","","175","",""
"745.0000000000582","333675","HierDy2b30jqj8","sub23","11","05","rl","test","76","img/p_s_diag.png","8","76","shape,color,pattern","176","1",""
"null","334678","HierDy2b30jqj8","sub23","11","05","feedback","test","null","","","na","","176","",""
"601","335280","HierDy2b30jqj8","sub23","11","05","rl","test","83","img/o_c_diag.png","2","83","shape,color,pattern","177","1",""
"null","336283","HierDy2b30jqj8","sub23","11","05","feedback","test","null","","","na","","177","",""
"723","337008","HierDy2b30jqj8","sub23","11","05","rl","test","68","img/p_c_diag.png","4","70","shape,color,pattern","178","0",""
"null","338011","HierDy2b30jqj8","sub23","11","05","feedback","test","null","","","na","","178","",""
"552.9999999999418","338567","HierDy2b30jqj8","sub23","11","05","rl","test","70","img/p_c_diag.png","4","70","shape,color,pattern","179","1",""
"null","339570","HierDy2b30jqj8","sub23","11","05","feedback","test","null","","","na","","179","",""
"733","340305","HierDy2b30jqj8","sub23","11","05","rl","test","76","img/p_s_diag.png","8","76","shape,color,pattern","180","1",""
"null","341308","HierDy2b30jqj8","sub23","11","05","feedback","test","null","","","na","","180","",""
"699","342008","HierDy2b30jqj8","sub23","11","05","rl","test","65","img/o_c_dots.png","1","65","shape,color,pattern","181","1",""
"null","343011","HierDy2b30jqj8","sub23","11","05","feedback","test","null","","","na","","181","",""
"744","343757","HierDy2b30jqj8","sub23","11","05","rl","test","75","img/p_s_dots.png","7","75","shape,color,pattern","182","1",""
"null","344760","HierDy2b30jqj8","sub23","11","05","feedback","test","null","","","na","","182","",""
"897","345659","HierDy2b30jqj8","sub23","11","05","rl","test","72","img/o_s_dots.png","5","72","shape,color,pattern","183","1",""
"null","346661","HierDy2b30jqj8","sub23","11","05","feedback","test","null","","","na","","183","",""
"850.0000000000582","347514","HierDy2b30jqj8","sub23","11","05","rl","test","68","img/p_c_dots.png","3","68","shape,color,pattern","184","1",""
"null","348518","HierDy2b30jqj8","sub23","11","05","feedback","test","null","","","na","","184","",""
"1024","349546","HierDy2b30jqj8","sub23","11","05","rl","test","74","img/o_s_diag.png","6","74","shape,color,pattern","185","1",""
"null","350549","HierDy2b30jqj8","sub23","11","05","feedback","test","null","","","na","","185","",""
"835","351387","HierDy2b30jqj8","sub23","11","05","rl","test","76","img/p_s_diag.png","8","76","shape,color,pattern","186","1",""
"null","352390","HierDy2b30jqj8","sub23","11","05","feedback","test","null","","","na","","186","",""
"810","353202","HierDy2b30jqj8","sub23","11","05","rl","test","75","img/p_s_dots.png","7","75","shape,color,pattern","187","1",""
"null","354206","HierDy2b30jqj8","sub23","11","05","feedback","test","null","","","na","","187","",""
"767","354975","HierDy2b30jqj8","sub23","11","05","rl","test","70","img/p_c_diag.png","4","70","shape,color,pattern","188","1",""
"null","355978","HierDy2b30jqj8","sub23","11","05","feedback","test","null","","","na","","188","",""
"742","356722","HierDy2b30jqj8","sub23","11","05","rl","test","74","img/o_s_diag.png","6","74","shape,color,pattern","189","1",""
"null","357725","HierDy2b30jqj8","sub23","11","05","feedback","test","null","","","na","","189","",""
"967.9999999999418","358696","HierDy2b30jqj8","sub23","11","05","rl","test","72","img/o_s_dots.png","5","72","shape,color,pattern","190","1",""
"null","359698","HierDy2b30jqj8","sub23","11","05","feedback","test","null","","","na","","190","",""
"825.0000000000582","360526","HierDy2b30jqj8","sub23","11","05","rl","test","70","img/o_c_diag.png","2","83","shape,color,pattern","191","0",""
"null","361529","HierDy2b30jqj8","sub23","11","05","feedback","test","null","","","na","","191","",""
"780","362313","HierDy2b30jqj8","sub23","11","05","rl","test","68","img/p_c_dots.png","3","68","shape,color,pattern","192","1",""
"null","363316","HierDy2b30jqj8","sub23","11","05","feedback","test","null","","","na","","192","",""
"533","363852","HierDy2b30jqj8","sub23","11","05","rl","test","83","img/o_c_diag.png","2","83","shape,color,pattern","193","1",""
"null","364855","HierDy2b30jqj8","sub23","11","05","feedback","test","null","","","na","","193","",""
"737","365594","HierDy2b30jqj8","sub23","11","05","rl","test","68","img/p_c_dots.png","3","68","shape,color,pattern","194","1",""
"null","366597","HierDy2b30jqj8","sub23","11","05","feedback","test","null","","","na","","194","",""
"684","367284","HierDy2b30jqj8","sub23","11","05","rl","test","72","img/o_s_dots.png","5","72","shape,color,pattern","195","1",""
"null","368287","HierDy2b30jqj8","sub23","11","05","feedback","test","null","","","na","","195","",""
"630","368919","HierDy2b30jqj8","sub23","11","05","rl","test","70","img/o_c_dots.png","1","65","shape,color,pattern","196","0",""
"null","369923","HierDy2b30jqj8","sub23","11","05","feedback","test","null","","","na","","196","",""
"1051","370976","HierDy2b30jqj8","sub23","11","05","rl","test","76","img/p_s_diag.png","8","76","shape,color,pattern","197","1",""
"null","371979","HierDy2b30jqj8","sub23","11","05","feedback","test","null","","","na","","197","",""
"732","372714","HierDy2b30jqj8","sub23","11","05","rl","test","75","img/p_s_dots.png","7","75","shape,color,pattern","198","1",""
"null","373717","HierDy2b30jqj8","sub23","11","05","feedback","test","null","","","na","","198","",""
"716.0000000000582","374436","HierDy2b30jqj8","sub23","11","05","rl","test","74","img/o_s_diag.png","6","74","shape,color,pattern","199","1",""
"null","375440","HierDy2b30jqj8","sub23","11","05","feedback","test","null","","","na","","199","",""
"1081","376523","HierDy2b30jqj8","sub23","11","05","rl","test","70","img/p_c_diag.png","4","70","shape,color,pattern","200","1",""
"null","377526","HierDy2b30jqj8","sub23","11","05","feedback","test","null","","","na","","200","",""
"868","378397","HierDy2b30jqj8","sub23","11","05","rl","test","75","img/p_s_dots.png","7","75","shape,color,pattern","201","1",""
"null","379400","HierDy2b30jqj8","sub23","11","05","feedback","test","null","","","na","","201","",""
"1184","380586","HierDy2b30jqj8","sub23","11","05","rl","test","68","img/p_c_dots.png","3","68","shape,color,pattern","202","1",""
"null","381590","HierDy2b30jqj8","sub23","11","05","feedback","test","null","","","na","","202","",""
"794","382386","HierDy2b30jqj8","sub23","11","05","rl","test","76","img/p_s_diag.png","8","76","shape,color,pattern","203","1",""
"null","383390","HierDy2b30jqj8","sub23","11","05","feedback","test","null","","","na","","203","",""
"754","384146","HierDy2b30jqj8","sub23","11","05","rl","test","72","img/o_s_dots.png","5","72","shape,color,pattern","204","1",""
"null","385148","HierDy2b30jqj8","sub23","11","05","feedback","test","null","","","na","","204","",""
"762","385912","HierDy2b30jqj8","sub23","11","05","rl","test","65","img/o_c_dots.png","1","65","shape,color,pattern","205","1",""
"null","386914","HierDy2b30jqj8","sub23","11","05","feedback","test","null","","","na","","205","",""
"666","387583","HierDy2b30jqj8","sub23","11","05","rl","test","83","img/o_c_diag.png","2","83","shape,color,pattern","206","1",""
"null","388585","HierDy2b30jqj8","sub23","11","05","feedback","test","null","","","na","","206","",""
"590","389177","HierDy2b30jqj8","sub23","11","05","rl","test","70","img/p_c_diag.png","4","70","shape,color,pattern","207","1",""
"null","390180","HierDy2b30jqj8","sub23","11","05","feedback","test","null","","","na","","207","",""
"471","390653","HierDy2b30jqj8","sub23","11","05","rl","test","70","img/p_c_diag.png","4","70","shape,color,pattern","208","1",""
"null","391656","HierDy2b30jqj8","sub23","11","05","feedback","test","null","","","na","","208","",""
"887","392545","HierDy2b30jqj8","sub23","11","05","rl","test","74","img/o_s_diag.png","6","74","shape,color,pattern","209","1",""
"null","393550","HierDy2b30jqj8","sub23","11","05","feedback","test","null","","","na","","209","",""
"1068.0000000000582","394621","HierDy2b30jqj8","sub23","11","05","rl","test","83","img/o_c_diag.png","2","83","shape,color,pattern","210","1",""
"null","395625","HierDy2b30jqj8","sub23","11","05","feedback","test","null","","","na","","210","",""
"714","396342","HierDy2b30jqj8","sub23","11","05","rl","test","72","img/o_c_dots.png","1","65","shape,color,pattern","211","0",""
"null","397345","HierDy2b30jqj8","sub23","11","05","feedback","test","null","","","na","","211","",""
"828","398176","HierDy2b30jqj8","sub23","11","05","rl","test","74","img/o_s_diag.png","6","74","shape,color,pattern","212","1",""
"null","399179","HierDy2b30jqj8","sub23","11","05","feedback","test","null","","","na","","212","",""
"1077.0000000000582","400258","HierDy2b30jqj8","sub23","11","05","rl","test","68","img/p_c_dots.png","3","68","shape,color,pattern","213","1",""
"null","401261","HierDy2b30jqj8","sub23","11","05","feedback","test","null","","","na","","213","",""
"995","402258","HierDy2b30jqj8","sub23","11","05","rl","test","75","img/p_s_dots.png","7","75","shape,color,pattern","214","1",""
"null","403261","HierDy2b30jqj8","sub23","11","05","feedback","test","null","","","na","","214","",""
"1029","404293","HierDy2b30jqj8","sub23","11","05","rl","test","76","img/p_s_diag.png","8","76","shape,color,pattern","215","1",""
"null","405296","HierDy2b30jqj8","sub23","11","05","feedback","test","null","","","na","","215","",""
"705","406002","HierDy2b30jqj8","sub23","11","05","rl","test","72","img/o_s_dots.png","5","72","shape,color,pattern","216","1",""
"null","407005","HierDy2b30jqj8","sub23","11","05","feedback","test","null","","","na","","216","",""
"885.9999999999418","407894","HierDy2b30jqj8","sub23","11","05","rl","test","83","img/o_c_diag.png","2","83","shape,color,pattern","217","1",""
"null","408896","HierDy2b30jqj8","sub23","11","05","feedback","test","null","","","na","","217","",""
"794","409692","HierDy2b30jqj8","sub23","11","05","rl","test","72","img/o_s_dots.png","5","72","shape,color,pattern","218","1",""
"null","410696","HierDy2b30jqj8","sub23","11","05","feedback","test","null","","","na","","218","",""
"967.9999999999418","411666","HierDy2b30jqj8","sub23","11","05","rl","test","65","img/o_c_dots.png","1","65","shape,color,pattern","219","1",""
"null","412669","HierDy2b30jqj8","sub23","11","05","feedback","test","null","","","na","","219","",""
"1160","413832","HierDy2b30jqj8","sub23","11","05","rl","test","76","img/p_s_diag.png","8","76","shape,color,pattern","220","1",""
"null","414835","HierDy2b30jqj8","sub23","11","05","feedback","test","null","","","na","","220","",""
"1353","416190","HierDy2b30jqj8","sub23","11","05","rl","test","74","img/o_s_diag.png","6","74","shape,color,pattern","221","1",""
"null","417193","HierDy2b30jqj8","sub23","11","05","feedback","test","null","","","na","","221","",""
"824.0000000000582","418020","HierDy2b30jqj8","sub23","11","05","rl","test","70","img/p_c_diag.png","4","70","shape,color,pattern","222","1",""
"null","419023","HierDy2b30jqj8","sub23","11","05","feedback","test","null","","","na","","222","",""
"568","419594","HierDy2b30jqj8","sub23","11","05","rl","test","70","img/p_c_diag.png","4","70","shape,color,pattern","223","1",""
"null","420597","HierDy2b30jqj8","sub23","11","05","feedback","test","null","","","na","","223","",""
"1038.0000000000582","421638","HierDy2b30jqj8","sub23","11","05","rl","test","75","img/p_s_dots.png","7","75","shape,color,pattern","224","1",""
"null","422641","HierDy2b30jqj8","sub23","11","05","feedback","test","null","","","na","","224","",""
"1012","423656","HierDy2b30jqj8","sub23","11","05","rl","test","76","img/p_s_diag.png","8","76","shape,color,pattern","225","1",""
"null","424659","HierDy2b30jqj8","sub23","11","05","feedback","test","null","","","na","","225","",""
"1002.9999999999418","425665","HierDy2b30jqj8","sub23","11","05","rl","test","68","img/p_c_dots.png","3","68","shape,color,pattern","226","1",""
"null","426668","HierDy2b30jqj8","sub23","11","05","feedback","test","null","","","na","","226","",""
"945","427616","HierDy2b30jqj8","sub23","11","05","rl","test","75","img/p_s_dots.png","7","75","shape,color,pattern","227","1",""
"null","428620","HierDy2b30jqj8","sub23","11","05","feedback","test","null","","","na","","227","",""
"1326","429948","HierDy2b30jqj8","sub23","11","05","rl","test","83","img/o_s_diag.png","6","74","shape,color,pattern","228","0",""
"null","430952","HierDy2b30jqj8","sub23","11","05","feedback","test","null","","","na","","228","",""
"942","431896","HierDy2b30jqj8","sub23","11","05","rl","test","68","img/p_c_dots.png","3","68","shape,color,pattern","229","1",""
"null","432900","HierDy2b30jqj8","sub23","11","05","feedback","test","null","","","na","","229","",""
"844","433746","HierDy2b30jqj8","sub23","11","05","rl","test","65","img/o_c_dots.png","1","65","shape,color,pattern","230","1",""
"null","434749","HierDy2b30jqj8","sub23","11","05","feedback","test","null","","","na","","230","",""
"599","435350","HierDy2b30jqj8","sub23","11","05","rl","test","83","img/o_c_diag.png","2","83","shape,color,pattern","231","1",""
"null","436352","HierDy2b30jqj8","sub23","11","05","feedback","test","null","","","na","","231","",""
"1318.0000000000582","437673","HierDy2b30jqj8","sub23","11","05","rl","test","74","img/o_s_diag.png","6","74","shape,color,pattern","232","1",""
"null","438677","HierDy2b30jqj8","sub23","11","05","feedback","test","null","","","na","","232","",""
"789","439470","HierDy2b30jqj8","sub23","11","05","rl","test","72","img/o_s_dots.png","5","72","shape,color,pattern","233","1",""
"null","440472","HierDy2b30jqj8","sub23","11","05","feedback","test","null","","","na","","233","",""
"1025","441499","HierDy2b30jqj8","sub23","11","05","rl","test","72","img/o_s_dots.png","5","72","shape,color,pattern","234","1",""
"null","442502","HierDy2b30jqj8","sub23","11","05","feedback","test","null","","","na","","234","",""
"1071","443576","HierDy2b30jqj8","sub23","11","05","rl","test","68","img/p_c_dots.png","3","68","shape,color,pattern","235","1",""
"null","444579","HierDy2b30jqj8","sub23","11","05","feedback","test","null","","","na","","235","",""
"838","445421","HierDy2b30jqj8","sub23","11","05","rl","test","72","img/o_s_dots.png","5","72","shape,color,pattern","236","1",""
"null","446424","HierDy2b30jqj8","sub23","11","05","feedback","test","null","","","na","","236","",""
"1066","447493","HierDy2b30jqj8","sub23","11","05","rl","test","65","img/o_c_dots.png","1","65","shape,color,pattern","237","1",""
"null","448496","HierDy2b30jqj8","sub23","11","05","feedback","test","null","","","na","","237","",""
"1461.0000000000582","449959","HierDy2b30jqj8","sub23","11","05","rl","test","70","img/p_c_diag.png","4","70","shape,color,pattern","238","1",""
"null","450963","HierDy2b30jqj8","sub23","11","05","feedback","test","null","","","na","","238","",""
"881.0000000000582","451846","HierDy2b30jqj8","sub23","11","05","rl","test","83","img/o_c_diag.png","2","83","shape,color,pattern","239","1",""
"null","452849","HierDy2b30jqj8","sub23","11","05","feedback","test","null","","","na","","239","",""
"655.0000000000582","453507","HierDy2b30jqj8","sub23","11","05","rl","test","76","img/p_s_diag.png","8","76","shape,color,pattern","240","1",""
"null","454511","HierDy2b30jqj8","sub23","11","05","feedback","test","null","","","na","","240","",""
"859","455371","HierDy2b30jqj8","sub23","11","05","rl","test","75","img/p_s_dots.png","7","75","shape,color,pattern","241","1",""
"null","456374","HierDy2b30jqj8","sub23","11","05","feedback","test","null","","","na","","241","",""
"901","457278","HierDy2b30jqj8","sub23","11","05","rl","test","76","img/p_s_diag.png","8","76","shape,color,pattern","242","1",""
"null","458281","HierDy2b30jqj8","sub23","11","05","feedback","test","null","","","na","","242","",""
"740.0000000000582","459024","HierDy2b30jqj8","sub23","11","05","rl","test","70","img/p_c_diag.png","4","70","shape,color,pattern","243","1",""
"null","460028","HierDy2b30jqj8","sub23","11","05","feedback","test","null","","","na","","243","",""
"2110.999999999942","462141","HierDy2b30jqj8","sub23","11","05","rl","test","68","img/p_s_dots.png","7","75","shape,color,pattern","244","0",""
"null","463145","HierDy2b30jqj8","sub23","11","05","feedback","test","null","","","na","","244","",""
"1084","464231","HierDy2b30jqj8","sub23","11","05","rl","test","65","img/o_c_dots.png","1","65","shape,color,pattern","245","1",""
"null","465235","HierDy2b30jqj8","sub23","11","05","feedback","test","null","","","na","","245","",""
"1863.9999999999418","467101","HierDy2b30jqj8","sub23","11","05","rl","test","68","img/p_c_dots.png","3","68","shape,color,pattern","246","1",""
"null","468105","HierDy2b30jqj8","sub23","11","05","feedback","test","null","","","na","","246","",""
"1531.9999999999418","469639","HierDy2b30jqj8","sub23","11","05","rl","test","76","img/o_s_diag.png","6","74","shape,color,pattern","247","0",""
"null","470643","HierDy2b30jqj8","sub23","11","05","feedback","test","null","","","na","","247","",""
"1584","472229","HierDy2b30jqj8","sub23","11","05","rl","test","83","img/o_c_diag.png","2","83","shape,color,pattern","248","1",""
"null","473233","HierDy2b30jqj8","sub23","11","05","feedback","test","null","","","na","","248","",""
"60111","533381","HierDy2b30jqj8","sub23","11","05","","","","","","","","","","{""Q0"":""8""}"
"4527","537912","HierDy2b30jqj8","sub23","11","05","","","","","","","","","","{""Q0"":""none""}"
"3678","541590","HierDy2b30jqj8","sub23","11","05","","","","","","","","","",""
