"rt","time_elapsed","subject","subID","group","day","trialType","phase","key_press","stim","stimNum","corrresp","hierarchy","trialNum","corr","responses"
"1776.5999999940395","1779","HierDyocyd5825","sub22","10","04","","","","","","","","","",""
"","3638","HierDyocyd5825","sub22","10","04","fullscreen","","","","","","","","",""
"4760.199999988079","8399","HierDyocyd5825","sub22","10","04","","prac","","","","","","","",""
"8362","16763","HierDyocyd5825","sub22","10","04","","","32","","","","","","",""
"6621.799999982119","23386","HierDyocyd5825","sub22","10","04","","prac","","","","","","","",""
"1054.699999988079","24442","HierDyocyd5825","sub22","10","04","rl","test","70","img/b_s_check.png","4","70","shape,pattern,color","1","1",""
"null","25448","HierDyocyd5825","sub22","10","04","feedback","test","null","","","na","","1","",""
"1534","26984","HierDyocyd5825","sub22","10","04","rl","test","74","img/b_t_stripes.png","6","74","shape,pattern,color","2","1",""
"null","27992","HierDyocyd5825","sub22","10","04","feedback","test","null","","","na","","2","",""
"831.7999999821186","28825","HierDyocyd5825","sub22","10","04","rl","test","72","img/p_t_stripes.png","5","72","shape,pattern,color","3","1",""
"null","29830","HierDyocyd5825","sub22","10","04","feedback","test","null","","","na","","3","",""
"1520.2999999821186","31352","HierDyocyd5825","sub22","10","04","rl","test","83","img/b_s_stripes.png","2","83","shape,pattern,color","4","1",""
"null","32357","HierDyocyd5825","sub22","10","04","feedback","test","null","","","na","","4","",""
"968.4000000059605","33327","HierDyocyd5825","sub22","10","04","rl","test","65","img/p_s_stripes.png","1","65","shape,pattern,color","5","1",""
"null","34333","HierDyocyd5825","sub22","10","04","feedback","test","null","","","na","","5","",""
"1630","35964","HierDyocyd5825","sub22","10","04","rl","test","75","img/p_t_check.png","7","75","shape,pattern,color","6","1",""
"null","36975","HierDyocyd5825","sub22","10","04","feedback","test","null","","","na","","6","",""
"969.5","37946","HierDyocyd5825","sub22","10","04","rl","test","83","img/b_s_stripes.png","2","83","shape,pattern,color","7","1",""
"null","38953","HierDyocyd5825","sub22","10","04","feedback","test","null","","","na","","7","",""
"854.5","39808","HierDyocyd5825","sub22","10","04","rl","test","68","img/p_s_check.png","3","68","shape,pattern,color","8","1",""
"null","40814","HierDyocyd5825","sub22","10","04","feedback","test","null","","","na","","8","",""
"1310.800000011921","42125","HierDyocyd5825","sub22","10","04","rl","test","76","img/b_t_check.png","8","76","shape,pattern,color","9","1",""
"null","43137","HierDyocyd5825","sub22","10","04","feedback","test","null","","","na","","9","",""
"694.6999999880791","43833","HierDyocyd5825","sub22","10","04","rl","test","76","img/b_t_check.png","8","76","shape,pattern,color","10","1",""
"null","44841","HierDyocyd5825","sub22","10","04","feedback","test","null","","","na","","10","",""
"908.9000000059605","45751","HierDyocyd5825","sub22","10","04","rl","test","72","img/p_t_stripes.png","5","72","shape,pattern,color","11","1",""
"null","46761","HierDyocyd5825","sub22","10","04","feedback","test","null","","","na","","11","",""
"810.2999999821186","47572","HierDyocyd5825","sub22","10","04","rl","test","70","img/b_s_check.png","4","70","shape,pattern,color","12","1",""
"null","48580","HierDyocyd5825","sub22","10","04","feedback","test","null","","","na","","12","",""
"664.4000000059605","49245","HierDyocyd5825","sub22","10","04","rl","test","68","img/p_s_check.png","3","68","shape,pattern,color","13","1",""
"null","50252","HierDyocyd5825","sub22","10","04","feedback","test","null","","","na","","13","",""
"1104.4000000059605","51357","HierDyocyd5825","sub22","10","04","rl","test","75","img/p_t_check.png","7","75","shape,pattern,color","14","1",""
"null","52368","HierDyocyd5825","sub22","10","04","feedback","test","null","","","na","","14","",""
"935.6999999880791","53305","HierDyocyd5825","sub22","10","04","rl","test","74","img/b_t_stripes.png","6","74","shape,pattern,color","15","1",""
"null","54308","HierDyocyd5825","sub22","10","04","feedback","test","null","","","na","","15","",""
"814.4000000059605","55124","HierDyocyd5825","sub22","10","04","rl","test","65","img/p_s_stripes.png","1","65","shape,pattern,color","16","1",""
"null","56132","HierDyocyd5825","sub22","10","04","feedback","test","null","","","na","","16","",""
"1170","57303","HierDyocyd5825","sub22","10","04","rl","test","74","img/b_t_stripes.png","6","74","shape,pattern,color","17","1",""
"null","58308","HierDyocyd5825","sub22","10","04","feedback","test","null","","","na","","17","",""
"816.5","59126","HierDyocyd5825","sub22","10","04","rl","test","70","img/b_s_check.png","4","70","shape,pattern,color","18","1",""
"null","60136","HierDyocyd5825","sub22","10","04","feedback","test","null","","","na","","18","",""
"891.0999999940395","61029","HierDyocyd5825","sub22","10","04","rl","test","83","img/b_s_stripes.png","2","83","shape,pattern,color","19","1",""
"null","62036","HierDyocyd5825","sub22","10","04","feedback","test","null","","","na","","19","",""
"701.5999999940395","62739","HierDyocyd5825","sub22","10","04","rl","test","65","img/p_s_stripes.png","1","65","shape,pattern,color","20","1",""
"null","63748","HierDyocyd5825","sub22","10","04","feedback","test","null","","","na","","20","",""
"990.5","64740","HierDyocyd5825","sub22","10","04","rl","test","72","img/p_t_stripes.png","5","72","shape,pattern,color","21","1",""
"null","65752","HierDyocyd5825","sub22","10","04","feedback","test","null","","","na","","21","",""
"838.9000000059605","66592","HierDyocyd5825","sub22","10","04","rl","test","68","img/p_s_check.png","3","68","shape,pattern,color","22","1",""
"null","67598","HierDyocyd5825","sub22","10","04","feedback","test","null","","","na","","22","",""
"1335.2000000178814","68934","HierDyocyd5825","sub22","10","04","rl","test","75","img/p_t_check.png","7","75","shape,pattern,color","23","1",""
"null","69939","HierDyocyd5825","sub22","10","04","feedback","test","null","","","na","","23","",""
"762.6999999880791","70703","HierDyocyd5825","sub22","10","04","rl","test","76","img/b_t_check.png","8","76","shape,pattern,color","24","1",""
"null","71707","HierDyocyd5825","sub22","10","04","feedback","test","null","","","na","","24","",""
"834.0999999940395","72542","HierDyocyd5825","sub22","10","04","rl","test","76","img/b_t_check.png","8","76","shape,pattern,color","25","1",""
"null","73550","HierDyocyd5825","sub22","10","04","feedback","test","null","","","na","","25","",""
"1419.9000000059605","74971","HierDyocyd5825","sub22","10","04","rl","test","74","img/b_s_stripes.png","2","83","shape,pattern,color","26","0",""
"null","75980","HierDyocyd5825","sub22","10","04","feedback","test","null","","","na","","26","",""
"1040.199999988079","77022","HierDyocyd5825","sub22","10","04","rl","test","76","img/b_t_check.png","8","76","shape,pattern,color","27","1",""
"null","78031","HierDyocyd5825","sub22","10","04","feedback","test","null","","","na","","27","",""
"838.2000000178814","78870","HierDyocyd5825","sub22","10","04","rl","test","68","img/p_s_check.png","3","68","shape,pattern,color","28","1",""
"null","79875","HierDyocyd5825","sub22","10","04","feedback","test","null","","","na","","28","",""
"737.9000000059605","80614","HierDyocyd5825","sub22","10","04","rl","test","70","img/b_s_check.png","4","70","shape,pattern,color","29","1",""
"null","81620","HierDyocyd5825","sub22","10","04","feedback","test","null","","","na","","29","",""
"2210.199999988079","83831","HierDyocyd5825","sub22","10","04","rl","test","75","img/p_t_check.png","7","75","shape,pattern,color","30","1",""
"null","84835","HierDyocyd5825","sub22","10","04","feedback","test","null","","","na","","30","",""
"959.9000000059605","85796","HierDyocyd5825","sub22","10","04","rl","test","74","img/b_t_stripes.png","6","74","shape,pattern,color","31","1",""
"null","86803","HierDyocyd5825","sub22","10","04","feedback","test","null","","","na","","31","",""
"870.5","87675","HierDyocyd5825","sub22","10","04","rl","test","65","img/p_s_stripes.png","1","65","shape,pattern,color","32","1",""
"null","88685","HierDyocyd5825","sub22","10","04","feedback","test","null","","","na","","32","",""
"943.9000000059605","89630","HierDyocyd5825","sub22","10","04","rl","test","75","img/p_t_check.png","7","75","shape,pattern,color","33","1",""
"null","90635","HierDyocyd5825","sub22","10","04","feedback","test","null","","","na","","33","",""
"1034.699999988079","91671","HierDyocyd5825","sub22","10","04","rl","test","72","img/p_t_stripes.png","5","72","shape,pattern,color","34","1",""
"null","92675","HierDyocyd5825","sub22","10","04","feedback","test","null","","","na","","34","",""
"901","93578","HierDyocyd5825","sub22","10","04","rl","test","65","img/p_s_stripes.png","1","65","shape,pattern,color","35","1",""
"null","94591","HierDyocyd5825","sub22","10","04","feedback","test","null","","","na","","35","",""
"1179.199999988079","95771","HierDyocyd5825","sub22","10","04","rl","test","74","img/b_t_stripes.png","6","74","shape,pattern,color","36","1",""
"null","96783","HierDyocyd5825","sub22","10","04","feedback","test","null","","","na","","36","",""
"1154.2999999821186","97938","HierDyocyd5825","sub22","10","04","rl","test","70","img/b_s_check.png","4","70","shape,pattern,color","37","1",""
"null","98950","HierDyocyd5825","sub22","10","04","feedback","test","null","","","na","","37","",""
"1081.3999999761581","100032","HierDyocyd5825","sub22","10","04","rl","test","72","img/p_t_stripes.png","5","72","shape,pattern,color","38","1",""
"null","101036","HierDyocyd5825","sub22","10","04","feedback","test","null","","","na","","38","",""
"911.6000000238419","101949","HierDyocyd5825","sub22","10","04","rl","test","70","img/b_s_check.png","4","70","shape,pattern,color","39","1",""
"null","102956","HierDyocyd5825","sub22","10","04","feedback","test","null","","","na","","39","",""
"1065.5","104023","HierDyocyd5825","sub22","10","04","rl","test","83","img/b_s_stripes.png","2","83","shape,pattern,color","40","1",""
"null","105029","HierDyocyd5825","sub22","10","04","feedback","test","null","","","na","","40","",""
"909.9000000059605","105940","HierDyocyd5825","sub22","10","04","rl","test","68","img/p_s_check.png","3","68","shape,pattern,color","41","1",""
"null","106948","HierDyocyd5825","sub22","10","04","feedback","test","null","","","na","","41","",""
"1194.800000011921","108144","HierDyocyd5825","sub22","10","04","rl","test","76","img/b_t_check.png","8","76","shape,pattern,color","42","1",""
"null","109146","HierDyocyd5825","sub22","10","04","feedback","test","null","","","na","","42","",""
"729.5999999940395","109877","HierDyocyd5825","sub22","10","04","rl","test","75","img/p_t_check.png","7","75","shape,pattern,color","43","1",""
"null","110883","HierDyocyd5825","sub22","10","04","feedback","test","null","","","na","","43","",""
"840.6999999880791","111725","HierDyocyd5825","sub22","10","04","rl","test","74","img/b_t_stripes.png","6","74","shape,pattern,color","44","1",""
"null","112730","HierDyocyd5825","sub22","10","04","feedback","test","null","","","na","","44","",""
"938.7000000178814","113670","HierDyocyd5825","sub22","10","04","rl","test","65","img/p_s_stripes.png","1","65","shape,pattern,color","45","1",""
"null","114674","HierDyocyd5825","sub22","10","04","feedback","test","null","","","na","","45","",""
"602.2000000178814","115277","HierDyocyd5825","sub22","10","04","rl","test","65","img/p_s_stripes.png","1","65","shape,pattern,color","46","1",""
"null","116284","HierDyocyd5825","sub22","10","04","feedback","test","null","","","na","","46","",""
"880.1999999880791","117165","HierDyocyd5825","sub22","10","04","rl","test","72","img/p_t_stripes.png","5","72","shape,pattern,color","47","1",""
"null","118170","HierDyocyd5825","sub22","10","04","feedback","test","null","","","na","","47","",""
"843.7000000178814","119015","HierDyocyd5825","sub22","10","04","rl","test","68","img/p_s_check.png","3","68","shape,pattern,color","48","1",""
"null","120019","HierDyocyd5825","sub22","10","04","feedback","test","null","","","na","","48","",""
"898","120918","HierDyocyd5825","sub22","10","04","rl","test","83","img/b_s_stripes.png","2","83","shape,pattern,color","49","1",""
"null","121926","HierDyocyd5825","sub22","10","04","feedback","test","null","","","na","","49","",""
"760.5999999940395","122688","HierDyocyd5825","sub22","10","04","rl","test","68","img/p_s_check.png","3","68","shape,pattern,color","50","1",""
"null","123702","HierDyocyd5825","sub22","10","04","feedback","test","null","","","na","","50","",""
"773.4000000059605","124477","HierDyocyd5825","sub22","10","04","rl","test","72","img/p_t_stripes.png","5","72","shape,pattern,color","51","1",""
"null","125483","HierDyocyd5825","sub22","10","04","feedback","test","null","","","na","","51","",""
"808.3000000119209","126293","HierDyocyd5825","sub22","10","04","rl","test","83","img/b_s_stripes.png","2","83","shape,pattern,color","52","1",""
"null","127302","HierDyocyd5825","sub22","10","04","feedback","test","null","","","na","","52","",""
"661.7999999821186","127965","HierDyocyd5825","sub22","10","04","rl","test","70","img/b_s_check.png","4","70","shape,pattern,color","53","1",""
"null","128969","HierDyocyd5825","sub22","10","04","feedback","test","null","","","na","","53","",""
"906.1999999880791","129876","HierDyocyd5825","sub22","10","04","rl","test","76","img/b_t_check.png","8","76","shape,pattern,color","54","1",""
"null","130883","HierDyocyd5825","sub22","10","04","feedback","test","null","","","na","","54","",""
"741.1999999880791","131625","HierDyocyd5825","sub22","10","04","rl","test","74","img/b_t_stripes.png","6","74","shape,pattern,color","55","1",""
"null","132633","HierDyocyd5825","sub22","10","04","feedback","test","null","","","na","","55","",""
"756.3000000119209","133390","HierDyocyd5825","sub22","10","04","rl","test","74","img/b_t_stripes.png","6","74","shape,pattern,color","56","1",""
"null","134395","HierDyocyd5825","sub22","10","04","feedback","test","null","","","na","","56","",""
"752.6999999880791","135148","HierDyocyd5825","sub22","10","04","rl","test","83","img/b_s_stripes.png","2","83","shape,pattern,color","57","1",""
"null","136158","HierDyocyd5825","sub22","10","04","feedback","test","null","","","na","","57","",""
"770.6999999880791","136930","HierDyocyd5825","sub22","10","04","rl","test","75","img/p_t_check.png","7","75","shape,pattern,color","58","1",""
"null","137940","HierDyocyd5825","sub22","10","04","feedback","test","null","","","na","","58","",""
"725.5999999940395","138666","HierDyocyd5825","sub22","10","04","rl","test","70","img/b_s_check.png","4","70","shape,pattern,color","59","1",""
"null","139676","HierDyocyd5825","sub22","10","04","feedback","test","null","","","na","","59","",""
"747.5","140425","HierDyocyd5825","sub22","10","04","rl","test","68","img/p_s_check.png","3","68","shape,pattern,color","60","1",""
"null","141434","HierDyocyd5825","sub22","10","04","feedback","test","null","","","na","","60","",""
"843.6999999880791","142279","HierDyocyd5825","sub22","10","04","rl","test","65","img/p_s_stripes.png","1","65","shape,pattern,color","61","1",""
"null","143282","HierDyocyd5825","sub22","10","04","feedback","test","null","","","na","","61","",""
"622.8999999761581","143906","HierDyocyd5825","sub22","10","04","rl","test","76","img/b_t_check.png","8","76","shape,pattern,color","62","1",""
"null","144913","HierDyocyd5825","sub22","10","04","feedback","test","null","","","na","","62","",""
"857.1000000238419","145771","HierDyocyd5825","sub22","10","04","rl","test","83","img/p_s_stripes.png","1","65","shape,pattern,color","63","0",""
"null","146778","HierDyocyd5825","sub22","10","04","feedback","test","null","","","na","","63","",""
"1404","148183","HierDyocyd5825","sub22","10","04","rl","test","72","img/p_t_stripes.png","5","72","shape,pattern,color","64","1",""
"null","149187","HierDyocyd5825","sub22","10","04","feedback","test","null","","","na","","64","",""
"1361.4000000059605","150549","HierDyocyd5825","sub22","10","04","rl","test","76","img/p_t_check.png","7","75","shape,pattern,color","65","0",""
"null","151557","HierDyocyd5825","sub22","10","04","feedback","test","null","","","na","","65","",""
"839","152397","HierDyocyd5825","sub22","10","04","rl","test","68","img/p_s_check.png","3","68","shape,pattern,color","66","1",""
"null","153401","HierDyocyd5825","sub22","10","04","feedback","test","null","","","na","","66","",""
"1134","154536","HierDyocyd5825","sub22","10","04","rl","test","72","img/p_t_stripes.png","5","72","shape,pattern,color","67","1",""
"null","155548","HierDyocyd5825","sub22","10","04","feedback","test","null","","","na","","67","",""
"805","156354","HierDyocyd5825","sub22","10","04","rl","test","83","img/b_s_stripes.png","2","83","shape,pattern,color","68","1",""
"null","157364","HierDyocyd5825","sub22","10","04","feedback","test","null","","","na","","68","",""
"1282.4000000059605","158647","HierDyocyd5825","sub22","10","04","rl","test","75","img/p_t_check.png","7","75","shape,pattern,color","69","1",""
"null","159656","HierDyocyd5825","sub22","10","04","feedback","test","null","","","na","","69","",""
"1039.5999999940395","160697","HierDyocyd5825","sub22","10","04","rl","test","74","img/b_t_stripes.png","6","74","shape,pattern,color","70","1",""
"null","161707","HierDyocyd5825","sub22","10","04","feedback","test","null","","","na","","70","",""
"1042.7999999821186","162751","HierDyocyd5825","sub22","10","04","rl","test","70","img/b_s_check.png","4","70","shape,pattern,color","71","1",""
"null","163756","HierDyocyd5825","sub22","10","04","feedback","test","null","","","na","","71","",""
"799.4000000059605","164557","HierDyocyd5825","sub22","10","04","rl","test","72","img/p_t_stripes.png","5","72","shape,pattern,color","72","1",""
"null","165563","HierDyocyd5825","sub22","10","04","feedback","test","null","","","na","","72","",""
"1027","166591","HierDyocyd5825","sub22","10","04","rl","test","76","img/b_t_check.png","8","76","shape,pattern,color","73","1",""
"null","167602","HierDyocyd5825","sub22","10","04","feedback","test","null","","","na","","73","",""
"1035.699999988079","168639","HierDyocyd5825","sub22","10","04","rl","test","76","img/b_t_check.png","8","76","shape,pattern,color","74","1",""
"null","169648","HierDyocyd5825","sub22","10","04","feedback","test","null","","","na","","74","",""
"1239.5","170889","HierDyocyd5825","sub22","10","04","rl","test","70","img/b_s_check.png","4","70","shape,pattern,color","75","1",""
"null","171900","HierDyocyd5825","sub22","10","04","feedback","test","null","","","na","","75","",""
"1094.300000011921","172995","HierDyocyd5825","sub22","10","04","rl","test","74","img/b_t_stripes.png","6","74","shape,pattern,color","76","1",""
"null","174000","HierDyocyd5825","sub22","10","04","feedback","test","null","","","na","","76","",""
"843","174844","HierDyocyd5825","sub22","10","04","rl","test","75","img/p_t_check.png","7","75","shape,pattern,color","77","1",""
"null","175849","HierDyocyd5825","sub22","10","04","feedback","test","null","","","na","","77","",""
"1578.699999988079","177428","HierDyocyd5825","sub22","10","04","rl","test","65","img/p_s_stripes.png","1","65","shape,pattern,color","78","1",""
"null","178433","HierDyocyd5825","sub22","10","04","feedback","test","null","","","na","","78","",""
"null","180937","HierDyocyd5825","sub22","10","04","rl","test","null","img/p_s_check.png","3","68","shape,pattern,color","79","0",""
"null","181945","HierDyocyd5825","sub22","10","04","feedback","test","null","","","na","","79","",""
"null","184450","HierDyocyd5825","sub22","10","04","rl","test","null","img/b_s_stripes.png","2","83","shape,pattern,color","80","0",""
"null","185457","HierDyocyd5825","sub22","10","04","feedback","test","null","","","na","","80","",""
"1401.4000000059605","186859","HierDyocyd5825","sub22","10","04","rl","test","76","img/b_t_check.png","8","76","shape,pattern,color","81","1",""
"null","187864","HierDyocyd5825","sub22","10","04","feedback","test","null","","","na","","81","",""
"1057","188922","HierDyocyd5825","sub22","10","04","rl","test","72","img/p_t_stripes.png","5","72","shape,pattern,color","82","1",""
"null","189932","HierDyocyd5825","sub22","10","04","feedback","test","null","","","na","","82","",""
"1337.5","191271","HierDyocyd5825","sub22","10","04","rl","test","65","img/p_s_stripes.png","1","65","shape,pattern,color","83","1",""
"null","192280","HierDyocyd5825","sub22","10","04","feedback","test","null","","","na","","83","",""
"2276.100000023842","194557","HierDyocyd5825","sub22","10","04","rl","test","70","img/b_s_check.png","4","70","shape,pattern,color","84","1",""
"null","195559","HierDyocyd5825","sub22","10","04","feedback","test","null","","","na","","84","",""
"1958.5","197519","HierDyocyd5825","sub22","10","04","rl","test","83","img/b_s_stripes.png","2","83","shape,pattern,color","85","1",""
"null","198530","HierDyocyd5825","sub22","10","04","feedback","test","null","","","na","","85","",""
"1541.199999988079","200073","HierDyocyd5825","sub22","10","04","rl","test","74","img/b_t_stripes.png","6","74","shape,pattern,color","86","1",""
"null","201084","HierDyocyd5825","sub22","10","04","feedback","test","null","","","na","","86","",""
"1446.800000011921","202531","HierDyocyd5825","sub22","10","04","rl","test","83","img/p_s_check.png","3","68","shape,pattern,color","87","0",""
"null","203540","HierDyocyd5825","sub22","10","04","feedback","test","null","","","na","","87","",""
"1724.199999988079","205265","HierDyocyd5825","sub22","10","04","rl","test","74","img/b_t_stripes.png","6","74","shape,pattern,color","88","1",""
"null","206272","HierDyocyd5825","sub22","10","04","feedback","test","null","","","na","","88","",""
"1847","208120","HierDyocyd5825","sub22","10","04","rl","test","75","img/p_t_check.png","7","75","shape,pattern,color","89","1",""
"null","209128","HierDyocyd5825","sub22","10","04","feedback","test","null","","","na","","89","",""
"1677.699999988079","210806","HierDyocyd5825","sub22","10","04","rl","test","68","img/p_s_check.png","3","68","shape,pattern,color","90","1",""
"null","211815","HierDyocyd5825","sub22","10","04","feedback","test","null","","","na","","90","",""
"1627.1000000238419","213443","HierDyocyd5825","sub22","10","04","rl","test","83","img/b_s_stripes.png","2","83","shape,pattern,color","91","1",""
"null","214447","HierDyocyd5825","sub22","10","04","feedback","test","null","","","na","","91","",""
"1285.9000000059605","215734","HierDyocyd5825","sub22","10","04","rl","test","76","img/b_t_check.png","8","76","shape,pattern,color","92","1",""
"null","216748","HierDyocyd5825","sub22","10","04","feedback","test","null","","","na","","92","",""
"731.4000000059605","217480","HierDyocyd5825","sub22","10","04","rl","test","75","img/p_t_check.png","7","75","shape,pattern,color","93","1",""
"null","218491","HierDyocyd5825","sub22","10","04","feedback","test","null","","","na","","93","",""
"1040.2999999821186","219533","HierDyocyd5825","sub22","10","04","rl","test","75","img/p_t_check.png","7","75","shape,pattern,color","94","1",""
"null","220539","HierDyocyd5825","sub22","10","04","feedback","test","null","","","na","","94","",""
"913.1000000238419","221453","HierDyocyd5825","sub22","10","04","rl","test","72","img/p_t_stripes.png","5","72","shape,pattern,color","95","1",""
"null","222463","HierDyocyd5825","sub22","10","04","feedback","test","null","","","na","","95","",""
"776.4000000059605","223241","HierDyocyd5825","sub22","10","04","rl","test","70","img/b_s_check.png","4","70","shape,pattern,color","96","1",""
"null","224251","HierDyocyd5825","sub22","10","04","feedback","test","null","","","na","","96","",""
"1090.4000000059605","225343","HierDyocyd5825","sub22","10","04","rl","test","65","img/p_s_stripes.png","1","65","shape,pattern,color","97","1",""
"null","226350","HierDyocyd5825","sub22","10","04","feedback","test","null","","","na","","97","",""
"957.6999999880791","227309","HierDyocyd5825","sub22","10","04","rl","test","72","img/p_t_stripes.png","5","72","shape,pattern,color","98","1",""
"null","228323","HierDyocyd5825","sub22","10","04","feedback","test","null","","","na","","98","",""
"777.7999999821186","229102","HierDyocyd5825","sub22","10","04","rl","test","68","img/p_s_check.png","3","68","shape,pattern,color","99","1",""
"null","230112","HierDyocyd5825","sub22","10","04","feedback","test","null","","","na","","99","",""
"1239.1000000238419","231352","HierDyocyd5825","sub22","10","04","rl","test","83","img/p_s_stripes.png","1","65","shape,pattern,color","100","0",""
"null","232360","HierDyocyd5825","sub22","10","04","feedback","test","null","","","na","","100","",""
"1027.300000011921","233388","HierDyocyd5825","sub22","10","04","rl","test","68","img/p_s_check.png","3","68","shape,pattern,color","101","1",""
"null","234395","HierDyocyd5825","sub22","10","04","feedback","test","null","","","na","","101","",""
"1049.4000000059605","235446","HierDyocyd5825","sub22","10","04","rl","test","74","img/b_t_stripes.png","6","74","shape,pattern,color","102","1",""
"null","236457","HierDyocyd5825","sub22","10","04","feedback","test","null","","","na","","102","",""
"743.7999999821186","237202","HierDyocyd5825","sub22","10","04","rl","test","70","img/b_s_check.png","4","70","shape,pattern,color","103","1",""
"null","238208","HierDyocyd5825","sub22","10","04","feedback","test","null","","","na","","103","",""
"788.6000000238419","238997","HierDyocyd5825","sub22","10","04","rl","test","70","img/b_s_check.png","4","70","shape,pattern,color","104","1",""
"null","240007","HierDyocyd5825","sub22","10","04","feedback","test","null","","","na","","104","",""
"869.4000000059605","240877","HierDyocyd5825","sub22","10","04","rl","test","83","img/b_s_stripes.png","2","83","shape,pattern,color","105","1",""
"null","241887","HierDyocyd5825","sub22","10","04","feedback","test","null","","","na","","105","",""
"821.1999999880791","242709","HierDyocyd5825","sub22","10","04","rl","test","65","img/p_s_stripes.png","1","65","shape,pattern,color","106","1",""
"null","243718","HierDyocyd5825","sub22","10","04","feedback","test","null","","","na","","106","",""
"1568","245287","HierDyocyd5825","sub22","10","04","rl","test","76","img/b_t_check.png","8","76","shape,pattern,color","107","1",""
"null","246294","HierDyocyd5825","sub22","10","04","feedback","test","null","","","na","","107","",""
"1324","247619","HierDyocyd5825","sub22","10","04","rl","test","76","img/b_t_check.png","8","76","shape,pattern,color","108","1",""
"null","248625","HierDyocyd5825","sub22","10","04","feedback","test","null","","","na","","108","",""
"1406","250032","HierDyocyd5825","sub22","10","04","rl","test","75","img/p_t_check.png","7","75","shape,pattern,color","109","1",""
"null","251037","HierDyocyd5825","sub22","10","04","feedback","test","null","","","na","","109","",""
"1568.8999999761581","252607","HierDyocyd5825","sub22","10","04","rl","test","83","img/b_s_stripes.png","2","83","shape,pattern,color","110","1",""
"null","253618","HierDyocyd5825","sub22","10","04","feedback","test","null","","","na","","110","",""
"null","256130","HierDyocyd5825","sub22","10","04","rl","test","null","img/b_t_stripes.png","6","74","shape,pattern,color","111","0",""
"null","257137","HierDyocyd5825","sub22","10","04","feedback","test","null","","","na","","111","",""
"1746.5","258885","HierDyocyd5825","sub22","10","04","rl","test","70","img/b_s_check.png","4","70","shape,pattern,color","112","1",""
"null","259893","HierDyocyd5825","sub22","10","04","feedback","test","null","","","na","","112","",""
"2185","262079","HierDyocyd5825","sub22","10","04","rl","test","65","img/p_t_stripes.png","5","72","shape,pattern,color","113","0",""
"null","263089","HierDyocyd5825","sub22","10","04","feedback","test","null","","","na","","113","",""
"null","265597","HierDyocyd5825","sub22","10","04","rl","test","null","img/p_s_check.png","3","68","shape,pattern,color","114","0",""
"null","266607","HierDyocyd5825","sub22","10","04","feedback","test","null","","","na","","114","",""
"null","269112","HierDyocyd5825","sub22","10","04","rl","test","null","img/b_t_stripes.png","6","74","shape,pattern,color","115","0",""
"null","270120","HierDyocyd5825","sub22","10","04","feedback","test","null","","","na","","115","",""
"1642.9000000059605","271764","HierDyocyd5825","sub22","10","04","rl","test","76","img/p_t_check.png","7","75","shape,pattern,color","116","0",""
"null","272769","HierDyocyd5825","sub22","10","04","feedback","test","null","","","na","","116","",""
"1159.7999999821186","273930","HierDyocyd5825","sub22","10","04","rl","test","65","img/p_s_stripes.png","1","65","shape,pattern,color","117","1",""
"null","274934","HierDyocyd5825","sub22","10","04","feedback","test","null","","","na","","117","",""
"2211.2999999821186","277146","HierDyocyd5825","sub22","10","04","rl","test","76","img/b_t_check.png","8","76","shape,pattern,color","118","1",""
"null","278152","HierDyocyd5825","sub22","10","04","feedback","test","null","","","na","","118","",""
"2023.2000000178814","280176","HierDyocyd5825","sub22","10","04","rl","test","83","img/b_s_stripes.png","2","83","shape,pattern,color","119","1",""
"null","281185","HierDyocyd5825","sub22","10","04","feedback","test","null","","","na","","119","",""
"894.8999999761581","282082","HierDyocyd5825","sub22","10","04","rl","test","76","img/b_t_check.png","8","76","shape,pattern,color","120","1",""
"null","283086","HierDyocyd5825","sub22","10","04","feedback","test","null","","","na","","120","",""
"1750.0999999940395","284837","HierDyocyd5825","sub22","10","04","rl","test","72","img/p_t_stripes.png","5","72","shape,pattern,color","121","1",""
"null","285849","HierDyocyd5825","sub22","10","04","feedback","test","null","","","na","","121","",""
"1801.699999988079","287652","HierDyocyd5825","sub22","10","04","rl","test","83","img/b_s_stripes.png","2","83","shape,pattern,color","122","1",""
"null","288662","HierDyocyd5825","sub22","10","04","feedback","test","null","","","na","","122","",""
"880.5","289544","HierDyocyd5825","sub22","10","04","rl","test","76","img/p_t_check.png","7","75","shape,pattern,color","123","0",""
"null","290548","HierDyocyd5825","sub22","10","04","feedback","test","null","","","na","","123","",""
"1478.5","292028","HierDyocyd5825","sub22","10","04","rl","test","83","img/p_s_check.png","3","68","shape,pattern,color","124","0",""
"null","293040","HierDyocyd5825","sub22","10","04","feedback","test","null","","","na","","124","",""
"1152.800000011921","294194","HierDyocyd5825","sub22","10","04","rl","test","72","img/p_t_stripes.png","5","72","shape,pattern,color","125","1",""
"null","295199","HierDyocyd5825","sub22","10","04","feedback","test","null","","","na","","125","",""
"2118.7999999821186","297318","HierDyocyd5825","sub22","10","04","rl","test","70","img/b_s_check.png","4","70","shape,pattern,color","126","1",""
"null","298324","HierDyocyd5825","sub22","10","04","feedback","test","null","","","na","","126","",""
"2378.4000000059605","300704","HierDyocyd5825","sub22","10","04","rl","test","74","img/b_t_stripes.png","6","74","shape,pattern,color","127","1",""
"null","301712","HierDyocyd5825","sub22","10","04","feedback","test","null","","","na","","127","",""
"null","304222","HierDyocyd5825","sub22","10","04","rl","test","null","img/p_s_stripes.png","1","65","shape,pattern,color","128","0",""
"null","305231","HierDyocyd5825","sub22","10","04","feedback","test","null","","","na","","128","",""
"1137.2999999821186","306370","HierDyocyd5825","sub22","10","04","rl","test","75","img/p_t_check.png","7","75","shape,pattern,color","129","1",""
"null","307376","HierDyocyd5825","sub22","10","04","feedback","test","null","","","na","","129","",""
"1106.199999988079","308483","HierDyocyd5825","sub22","10","04","rl","test","65","img/p_s_stripes.png","1","65","shape,pattern,color","130","1",""
"null","309497","HierDyocyd5825","sub22","10","04","feedback","test","null","","","na","","130","",""
"930.6999999880791","310429","HierDyocyd5825","sub22","10","04","rl","test","70","img/b_s_check.png","4","70","shape,pattern,color","131","1",""
"null","311439","HierDyocyd5825","sub22","10","04","feedback","test","null","","","na","","131","",""
"2392.800000011921","313833","HierDyocyd5825","sub22","10","04","rl","test","74","img/b_t_stripes.png","6","74","shape,pattern,color","132","1",""
"null","314838","HierDyocyd5825","sub22","10","04","feedback","test","null","","","na","","132","",""
"1595.5","316435","HierDyocyd5825","sub22","10","04","rl","test","68","img/p_s_check.png","3","68","shape,pattern,color","133","1",""
"null","317445","HierDyocyd5825","sub22","10","04","feedback","test","null","","","na","","133","",""
"1092.4000000059605","318538","HierDyocyd5825","sub22","10","04","rl","test","76","img/b_t_check.png","8","76","shape,pattern,color","134","1",""
"null","319541","HierDyocyd5825","sub22","10","04","feedback","test","null","","","na","","134","",""
"2319.0999999940395","321861","HierDyocyd5825","sub22","10","04","rl","test","83","img/b_s_stripes.png","2","83","shape,pattern,color","135","1",""
"null","322868","HierDyocyd5825","sub22","10","04","feedback","test","null","","","na","","135","",""
"1498.300000011921","324368","HierDyocyd5825","sub22","10","04","rl","test","72","img/p_t_stripes.png","5","72","shape,pattern,color","136","1",""
"null","325372","HierDyocyd5825","sub22","10","04","feedback","test","null","","","na","","136","",""
"2497.199999988079","327870","HierDyocyd5825","sub22","10","04","rl","test","72","img/p_t_stripes.png","5","72","shape,pattern,color","137","1",""
"null","328875","HierDyocyd5825","sub22","10","04","feedback","test","null","","","na","","137","",""
"1456.7000000178814","330333","HierDyocyd5825","sub22","10","04","rl","test","83","img/b_s_stripes.png","2","83","shape,pattern,color","138","1",""
"null","331339","HierDyocyd5825","sub22","10","04","feedback","test","null","","","na","","138","",""
"1403.199999988079","332743","HierDyocyd5825","sub22","10","04","rl","test","74","img/b_t_stripes.png","6","74","shape,pattern,color","139","1",""
"null","333752","HierDyocyd5825","sub22","10","04","feedback","test","null","","","na","","139","",""
"2227.9000000059605","335980","HierDyocyd5825","sub22","10","04","rl","test","65","img/p_s_stripes.png","1","65","shape,pattern,color","140","1",""
"null","336990","HierDyocyd5825","sub22","10","04","feedback","test","null","","","na","","140","",""
"2181.199999988079","339172","HierDyocyd5825","sub22","10","04","rl","test","74","img/p_s_check.png","3","68","shape,pattern,color","141","0",""
"null","340183","HierDyocyd5825","sub22","10","04","feedback","test","null","","","na","","141","",""
"2289.7000000178814","342473","HierDyocyd5825","sub22","10","04","rl","test","72","img/p_t_check.png","7","75","shape,pattern,color","142","0",""
"null","343479","HierDyocyd5825","sub22","10","04","feedback","test","null","","","na","","142","",""
"1170.5","344651","HierDyocyd5825","sub22","10","04","rl","test","70","img/b_s_check.png","4","70","shape,pattern,color","143","1",""
"null","345664","HierDyocyd5825","sub22","10","04","feedback","test","null","","","na","","143","",""
"null","348174","HierDyocyd5825","sub22","10","04","rl","test","null","img/b_s_stripes.png","2","83","shape,pattern,color","144","0",""
"null","349181","HierDyocyd5825","sub22","10","04","feedback","test","null","","","na","","144","",""
"1003.5","350186","HierDyocyd5825","sub22","10","04","rl","test","70","img/b_s_check.png","4","70","shape,pattern,color","145","1",""
"null","351199","HierDyocyd5825","sub22","10","04","feedback","test","null","","","na","","145","",""
"1051.699999988079","352252","HierDyocyd5825","sub22","10","04","rl","test","75","img/p_t_check.png","7","75","shape,pattern,color","146","1",""
"null","353259","HierDyocyd5825","sub22","10","04","feedback","test","null","","","na","","146","",""
"2382","355642","HierDyocyd5825","sub22","10","04","rl","test","76","img/b_t_check.png","8","76","shape,pattern,color","147","1",""
"null","356654","HierDyocyd5825","sub22","10","04","feedback","test","null","","","na","","147","",""
"618.6000000238419","357274","HierDyocyd5825","sub22","10","04","rl","test","76","img/b_t_check.png","8","76","shape,pattern,color","148","1",""
"null","358283","HierDyocyd5825","sub22","10","04","feedback","test","null","","","na","","148","",""
"1500.8999999761581","359785","HierDyocyd5825","sub22","10","04","rl","test","72","img/p_t_stripes.png","5","72","shape,pattern,color","149","1",""
"null","360797","HierDyocyd5825","sub22","10","04","feedback","test","null","","","na","","149","",""
"2270.5","363069","HierDyocyd5825","sub22","10","04","rl","test","65","img/p_s_stripes.png","1","65","shape,pattern,color","150","1",""
"null","364075","HierDyocyd5825","sub22","10","04","feedback","test","null","","","na","","150","",""
"null","366583","HierDyocyd5825","sub22","10","04","rl","test","null","img/p_s_check.png","3","68","shape,pattern,color","151","0",""
"null","367589","HierDyocyd5825","sub22","10","04","feedback","test","null","","","na","","151","",""
"1031.5","368622","HierDyocyd5825","sub22","10","04","rl","test","76","img/p_t_check.png","7","75","shape,pattern,color","152","0",""
"null","369629","HierDyocyd5825","sub22","10","04","feedback","test","null","","","na","","152","",""
"1341.0999999940395","370971","HierDyocyd5825","sub22","10","04","rl","test","74","img/b_t_stripes.png","6","74","shape,pattern,color","153","1",""
"null","371980","HierDyocyd5825","sub22","10","04","feedback","test","null","","","na","","153","",""
"1540.199999988079","373522","HierDyocyd5825","sub22","10","04","rl","test","68","img/p_s_check.png","3","68","shape,pattern,color","154","1",""
"null","374531","HierDyocyd5825","sub22","10","04","feedback","test","null","","","na","","154","",""
"1043.300000011921","375576","HierDyocyd5825","sub22","10","04","rl","test","83","img/b_s_stripes.png","2","83","shape,pattern,color","155","1",""
"null","376581","HierDyocyd5825","sub22","10","04","feedback","test","null","","","na","","155","",""
"953","377535","HierDyocyd5825","sub22","10","04","rl","test","72","img/p_t_stripes.png","5","72","shape,pattern,color","156","1",""
"null","378538","HierDyocyd5825","sub22","10","04","feedback","test","null","","","na","","156","",""
"938.5","379477","HierDyocyd5825","sub22","10","04","rl","test","74","img/b_t_stripes.png","6","74","shape,pattern,color","157","1",""
"null","380482","HierDyocyd5825","sub22","10","04","feedback","test","null","","","na","","157","",""
"922.4000000059605","381405","HierDyocyd5825","sub22","10","04","rl","test","83","img/p_s_stripes.png","1","65","shape,pattern,color","158","0",""
"null","382413","HierDyocyd5825","sub22","10","04","feedback","test","null","","","na","","158","",""
"1120.2000000178814","383534","HierDyocyd5825","sub22","10","04","rl","test","68","img/p_s_check.png","3","68","shape,pattern,color","159","1",""
"null","384539","HierDyocyd5825","sub22","10","04","feedback","test","null","","","na","","159","",""
"785.3000000119209","385325","HierDyocyd5825","sub22","10","04","rl","test","70","img/b_s_check.png","4","70","shape,pattern,color","160","1",""
"null","386330","HierDyocyd5825","sub22","10","04","feedback","test","null","","","na","","160","",""
"1455.9000000059605","387787","HierDyocyd5825","sub22","10","04","rl","test","70","img/b_s_check.png","4","70","shape,pattern,color","161","1",""
"null","388798","HierDyocyd5825","sub22","10","04","feedback","test","null","","","na","","161","",""
"944.6999999880791","389744","HierDyocyd5825","sub22","10","04","rl","test","76","img/b_t_check.png","8","76","shape,pattern,color","162","1",""
"null","390749","HierDyocyd5825","sub22","10","04","feedback","test","null","","","na","","162","",""
"1296.5","392047","HierDyocyd5825","sub22","10","04","rl","test","65","img/p_s_stripes.png","1","65","shape,pattern,color","163","1",""
"null","393052","HierDyocyd5825","sub22","10","04","feedback","test","null","","","na","","163","",""
"1240.9000000059605","394294","HierDyocyd5825","sub22","10","04","rl","test","83","img/b_s_stripes.png","2","83","shape,pattern,color","164","1",""
"null","395298","HierDyocyd5825","sub22","10","04","feedback","test","null","","","na","","164","",""
"1844","397143","HierDyocyd5825","sub22","10","04","rl","test","76","img/b_t_check.png","8","76","shape,pattern,color","165","1",""
"null","398146","HierDyocyd5825","sub22","10","04","feedback","test","null","","","na","","165","",""
"1115.9000000059605","399263","HierDyocyd5825","sub22","10","04","rl","test","74","img/b_t_stripes.png","6","74","shape,pattern,color","166","1",""
"null","400266","HierDyocyd5825","sub22","10","04","feedback","test","null","","","na","","166","",""
"2286.699999988079","402554","HierDyocyd5825","sub22","10","04","rl","test","75","img/p_t_check.png","7","75","shape,pattern,color","167","1",""
"null","403562","HierDyocyd5825","sub22","10","04","feedback","test","null","","","na","","167","",""
"986.0999999940395","404549","HierDyocyd5825","sub22","10","04","rl","test","72","img/p_t_stripes.png","5","72","shape,pattern,color","168","1",""
"null","405556","HierDyocyd5825","sub22","10","04","feedback","test","null","","","na","","168","",""
"1137.2000000178814","406694","HierDyocyd5825","sub22","10","04","rl","test","75","img/p_t_check.png","7","75","shape,pattern,color","169","1",""
"null","407700","HierDyocyd5825","sub22","10","04","feedback","test","null","","","na","","169","",""
"2232.0999999940395","409933","HierDyocyd5825","sub22","10","04","rl","test","65","img/p_s_stripes.png","1","65","shape,pattern,color","170","1",""
"null","410937","HierDyocyd5825","sub22","10","04","feedback","test","null","","","na","","170","",""
"1478.0999999940395","412416","HierDyocyd5825","sub22","10","04","rl","test","76","img/b_t_check.png","8","76","shape,pattern,color","171","1",""
"null","413426","HierDyocyd5825","sub22","10","04","feedback","test","null","","","na","","171","",""
"null","415930","HierDyocyd5825","sub22","10","04","rl","test","null","img/b_s_check.png","4","70","shape,pattern,color","172","0",""
"null","416937","HierDyocyd5825","sub22","10","04","feedback","test","null","","","na","","172","",""
"1911","418850","HierDyocyd5825","sub22","10","04","rl","test","83","img/b_s_stripes.png","2","83","shape,pattern,color","173","1",""
"null","419857","HierDyocyd5825","sub22","10","04","feedback","test","null","","","na","","173","",""
"1230.699999988079","421089","HierDyocyd5825","sub22","10","04","rl","test","68","img/p_s_check.png","3","68","shape,pattern,color","174","1",""
"null","422097","HierDyocyd5825","sub22","10","04","feedback","test","null","","","na","","174","",""
"2223","424321","HierDyocyd5825","sub22","10","04","rl","test","72","img/p_t_stripes.png","5","72","shape,pattern,color","175","1",""
"null","425330","HierDyocyd5825","sub22","10","04","feedback","test","null","","","na","","175","",""
"1338.3999999761581","426670","HierDyocyd5825","sub22","10","04","rl","test","68","img/p_s_check.png","3","68","shape,pattern,color","176","1",""
"null","427672","HierDyocyd5825","sub22","10","04","feedback","test","null","","","na","","176","",""
"1877.5999999940395","429551","HierDyocyd5825","sub22","10","04","rl","test","83","img/b_s_stripes.png","2","83","shape,pattern,color","177","1",""
"null","430565","HierDyocyd5825","sub22","10","04","feedback","test","null","","","na","","177","",""
"null","433074","HierDyocyd5825","sub22","10","04","rl","test","null","img/p_s_stripes.png","1","65","shape,pattern,color","178","0",""
"null","434083","HierDyocyd5825","sub22","10","04","feedback","test","null","","","na","","178","",""
"null","436596","HierDyocyd5825","sub22","10","04","rl","test","null","img/b_t_stripes.png","6","74","shape,pattern,color","179","0",""
"null","437604","HierDyocyd5825","sub22","10","04","feedback","test","null","","","na","","179","",""
"940.5999999940395","438546","HierDyocyd5825","sub22","10","04","rl","test","74","img/b_t_stripes.png","6","74","shape,pattern,color","180","1",""
"null","439552","HierDyocyd5825","sub22","10","04","feedback","test","null","","","na","","180","",""
"1498.699999988079","441051","HierDyocyd5825","sub22","10","04","rl","test","76","img/b_t_check.png","8","76","shape,pattern,color","181","1",""
"null","442059","HierDyocyd5825","sub22","10","04","feedback","test","null","","","na","","181","",""
"1050.5","443111","HierDyocyd5825","sub22","10","04","rl","test","75","img/p_t_check.png","7","75","shape,pattern,color","182","1",""
"null","444122","HierDyocyd5825","sub22","10","04","feedback","test","null","","","na","","182","",""
"1364.3999999761581","445488","HierDyocyd5825","sub22","10","04","rl","test","72","img/p_t_stripes.png","5","72","shape,pattern,color","183","1",""
"null","446496","HierDyocyd5825","sub22","10","04","feedback","test","null","","","na","","183","",""
"2117.4000000059605","448615","HierDyocyd5825","sub22","10","04","rl","test","70","img/b_s_check.png","4","70","shape,pattern,color","184","1",""
"null","449627","HierDyocyd5825","sub22","10","04","feedback","test","null","","","na","","184","",""
"1175.2000000178814","450804","HierDyocyd5825","sub22","10","04","rl","test","76","img/b_t_check.png","8","76","shape,pattern,color","185","1",""
"null","451812","HierDyocyd5825","sub22","10","04","feedback","test","null","","","na","","185","",""
"1264.7999999821186","453078","HierDyocyd5825","sub22","10","04","rl","test","70","img/b_s_check.png","4","70","shape,pattern,color","186","1",""
"null","454092","HierDyocyd5825","sub22","10","04","feedback","test","null","","","na","","186","",""
"1252.5","455346","HierDyocyd5825","sub22","10","04","rl","test","68","img/p_s_check.png","3","68","shape,pattern,color","187","1",""
"null","456355","HierDyocyd5825","sub22","10","04","feedback","test","null","","","na","","187","",""
"1085.7999999821186","457442","HierDyocyd5825","sub22","10","04","rl","test","72","img/p_t_stripes.png","5","72","shape,pattern,color","188","1",""
"null","458447","HierDyocyd5825","sub22","10","04","feedback","test","null","","","na","","188","",""
"1858","460306","HierDyocyd5825","sub22","10","04","rl","test","70","img/b_s_check.png","4","70","shape,pattern,color","189","1",""
"null","461316","HierDyocyd5825","sub22","10","04","feedback","test","null","","","na","","189","",""
"1270.9000000059605","462588","HierDyocyd5825","sub22","10","04","rl","test","74","img/b_t_stripes.png","6","74","shape,pattern,color","190","1",""
"null","463593","HierDyocyd5825","sub22","10","04","feedback","test","null","","","na","","190","",""
"null","466096","HierDyocyd5825","sub22","10","04","rl","test","null","img/b_s_stripes.png","2","83","shape,pattern,color","191","0",""
"null","467103","HierDyocyd5825","sub22","10","04","feedback","test","null","","","na","","191","",""
"2288.4000000059605","469393","HierDyocyd5825","sub22","10","04","rl","test","83","img/b_s_stripes.png","2","83","shape,pattern,color","192","1",""
"null","470400","HierDyocyd5825","sub22","10","04","feedback","test","null","","","na","","192","",""
"null","472903","HierDyocyd5825","sub22","10","04","rl","test","null","img/p_s_stripes.png","1","65","shape,pattern,color","193","0",""
"null","473912","HierDyocyd5825","sub22","10","04","feedback","test","null","","","na","","193","",""
"null","476420","HierDyocyd5825","sub22","10","04","rl","test","null","img/p_t_stripes.png","5","72","shape,pattern,color","194","0",""
"null","477423","HierDyocyd5825","sub22","10","04","feedback","test","null","","","na","","194","",""
"2189.199999988079","479613","HierDyocyd5825","sub22","10","04","rl","test","75","img/p_t_check.png","7","75","shape,pattern,color","195","1",""
"null","480616","HierDyocyd5825","sub22","10","04","feedback","test","null","","","na","","195","",""
"1360.5","481978","HierDyocyd5825","sub22","10","04","rl","test","76","img/b_t_check.png","8","76","shape,pattern,color","196","1",""
"null","482983","HierDyocyd5825","sub22","10","04","feedback","test","null","","","na","","196","",""
"1489.199999988079","484473","HierDyocyd5825","sub22","10","04","rl","test","65","img/p_s_stripes.png","1","65","shape,pattern,color","197","1",""
"null","485483","HierDyocyd5825","sub22","10","04","feedback","test","null","","","na","","197","",""
"1249.699999988079","486734","HierDyocyd5825","sub22","10","04","rl","test","74","img/b_t_stripes.png","6","74","shape,pattern,color","198","1",""
"null","487746","HierDyocyd5825","sub22","10","04","feedback","test","null","","","na","","198","",""
"1182.199999988079","488929","HierDyocyd5825","sub22","10","04","rl","test","68","img/p_s_check.png","3","68","shape,pattern,color","199","1",""
"null","489934","HierDyocyd5825","sub22","10","04","feedback","test","null","","","na","","199","",""
"1196.199999988079","491132","HierDyocyd5825","sub22","10","04","rl","test","75","img/p_t_check.png","7","75","shape,pattern,color","200","1",""
"null","492135","HierDyocyd5825","sub22","10","04","feedback","test","null","","","na","","200","",""
"1490","493626","HierDyocyd5825","sub22","10","04","rl","test","75","img/p_t_check.png","7","75","shape,pattern,color","201","1",""
"null","494632","HierDyocyd5825","sub22","10","04","feedback","test","null","","","na","","201","",""
"1810.0999999940395","496442","HierDyocyd5825","sub22","10","04","rl","test","68","img/p_s_check.png","3","68","shape,pattern,color","202","1",""
"null","497447","HierDyocyd5825","sub22","10","04","feedback","test","null","","","na","","202","",""
"927.6999999880791","498376","HierDyocyd5825","sub22","10","04","rl","test","70","img/b_s_check.png","4","70","shape,pattern,color","203","1",""
"null","499383","HierDyocyd5825","sub22","10","04","feedback","test","null","","","na","","203","",""
"2391.800000011921","501776","HierDyocyd5825","sub22","10","04","rl","test","65","img/p_s_stripes.png","1","65","shape,pattern,color","204","1",""
"null","502783","HierDyocyd5825","sub22","10","04","feedback","test","null","","","na","","204","",""
"1593.7999999821186","504378","HierDyocyd5825","sub22","10","04","rl","test","76","img/b_t_check.png","8","76","shape,pattern,color","205","1",""
"null","505385","HierDyocyd5825","sub22","10","04","feedback","test","null","","","na","","205","",""
"2307.0999999940395","507693","HierDyocyd5825","sub22","10","04","rl","test","74","img/b_t_stripes.png","6","74","shape,pattern,color","206","1",""
"null","508707","HierDyocyd5825","sub22","10","04","feedback","test","null","","","na","","206","",""
"2482.699999988079","511191","HierDyocyd5825","sub22","10","04","rl","test","83","img/b_s_stripes.png","2","83","shape,pattern,color","207","1",""
"null","512200","HierDyocyd5825","sub22","10","04","feedback","test","null","","","na","","207","",""
"1057.300000011921","513259","HierDyocyd5825","sub22","10","04","rl","test","72","img/p_t_stripes.png","5","72","shape,pattern,color","208","1",""
"null","514262","HierDyocyd5825","sub22","10","04","feedback","test","null","","","na","","208","",""
"742.5","515006","HierDyocyd5825","sub22","10","04","rl","test","70","img/b_s_check.png","4","70","shape,pattern,color","209","1",""
"null","516018","HierDyocyd5825","sub22","10","04","feedback","test","null","","","na","","209","",""
"1373.0999999940395","517393","HierDyocyd5825","sub22","10","04","rl","test","72","img/p_t_stripes.png","5","72","shape,pattern,color","210","1",""
"null","518401","HierDyocyd5825","sub22","10","04","feedback","test","null","","","na","","210","",""
"2101.4000000059605","520504","HierDyocyd5825","sub22","10","04","rl","test","83","img/p_s_stripes.png","1","65","shape,pattern,color","211","0",""
"null","521510","HierDyocyd5825","sub22","10","04","feedback","test","null","","","na","","211","",""
"1031.6000000238419","522543","HierDyocyd5825","sub22","10","04","rl","test","74","img/b_t_stripes.png","6","74","shape,pattern,color","212","1",""
"null","523549","HierDyocyd5825","sub22","10","04","feedback","test","null","","","na","","212","",""
"1179","524729","HierDyocyd5825","sub22","10","04","rl","test","68","img/p_s_check.png","3","68","shape,pattern,color","213","1",""
"null","525733","HierDyocyd5825","sub22","10","04","feedback","test","null","","","na","","213","",""
"1011.0999999940395","526746","HierDyocyd5825","sub22","10","04","rl","test","75","img/p_t_check.png","7","75","shape,pattern,color","214","1",""
"null","527750","HierDyocyd5825","sub22","10","04","feedback","test","null","","","na","","214","",""
"823.5999999940395","528575","HierDyocyd5825","sub22","10","04","rl","test","76","img/b_t_check.png","8","76","shape,pattern,color","215","1",""
"null","529583","HierDyocyd5825","sub22","10","04","feedback","test","null","","","na","","215","",""
"2358.9000000059605","531943","HierDyocyd5825","sub22","10","04","rl","test","83","img/b_s_stripes.png","2","83","shape,pattern,color","216","1",""
"null","532950","HierDyocyd5825","sub22","10","04","feedback","test","null","","","na","","216","",""
"1494.2000000178814","534445","HierDyocyd5825","sub22","10","04","rl","test","68","img/p_s_check.png","3","68","shape,pattern,color","217","1",""
"null","535453","HierDyocyd5825","sub22","10","04","feedback","test","null","","","na","","217","",""
"1516","536970","HierDyocyd5825","sub22","10","04","rl","test","83","img/b_s_stripes.png","2","83","shape,pattern,color","218","1",""
"null","537974","HierDyocyd5825","sub22","10","04","feedback","test","null","","","na","","218","",""
"985.2999999821186","538961","HierDyocyd5825","sub22","10","04","rl","test","75","img/p_t_check.png","7","75","shape,pattern,color","219","1",""
"null","539967","HierDyocyd5825","sub22","10","04","feedback","test","null","","","na","","219","",""
"1063.699999988079","541032","HierDyocyd5825","sub22","10","04","rl","test","75","img/p_t_check.png","7","75","shape,pattern,color","220","1",""
"null","542037","HierDyocyd5825","sub22","10","04","feedback","test","null","","","na","","220","",""
"977.9000000059605","543016","HierDyocyd5825","sub22","10","04","rl","test","70","img/b_s_check.png","4","70","shape,pattern,color","221","1",""
"null","544021","HierDyocyd5825","sub22","10","04","feedback","test","null","","","na","","221","",""
"2448.199999988079","546470","HierDyocyd5825","sub22","10","04","rl","test","76","img/b_t_check.png","8","76","shape,pattern,color","222","1",""
"null","547481","HierDyocyd5825","sub22","10","04","feedback","test","null","","","na","","222","",""
"null","549989","HierDyocyd5825","sub22","10","04","rl","test","null","img/p_t_stripes.png","5","72","shape,pattern,color","223","0",""
"null","550998","HierDyocyd5825","sub22","10","04","feedback","test","null","","","na","","223","",""
"1308.800000011921","552307","HierDyocyd5825","sub22","10","04","rl","test","70","img/b_s_check.png","4","70","shape,pattern,color","224","1",""
"null","553319","HierDyocyd5825","sub22","10","04","feedback","test","null","","","na","","224","",""
"1893.3999999761581","555213","HierDyocyd5825","sub22","10","04","rl","test","65","img/p_s_stripes.png","1","65","shape,pattern,color","225","1",""
"null","556221","HierDyocyd5825","sub22","10","04","feedback","test","null","","","na","","225","",""
"2010.0999999940395","558233","HierDyocyd5825","sub22","10","04","rl","test","76","img/b_t_check.png","8","76","shape,pattern,color","226","1",""
"null","559237","HierDyocyd5825","sub22","10","04","feedback","test","null","","","na","","226","",""
"818.3000000119209","560056","HierDyocyd5825","sub22","10","04","rl","test","74","img/b_t_stripes.png","6","74","shape,pattern,color","227","1",""
"null","561061","HierDyocyd5825","sub22","10","04","feedback","test","null","","","na","","227","",""
"1087.199999988079","562149","HierDyocyd5825","sub22","10","04","rl","test","65","img/p_s_stripes.png","1","65","shape,pattern,color","228","1",""
"null","563157","HierDyocyd5825","sub22","10","04","feedback","test","null","","","na","","228","",""
"822.1999999880791","563980","HierDyocyd5825","sub22","10","04","rl","test","68","img/p_s_check.png","3","68","shape,pattern,color","229","1",""
"null","564992","HierDyocyd5825","sub22","10","04","feedback","test","null","","","na","","229","",""
"721.5","565714","HierDyocyd5825","sub22","10","04","rl","test","68","img/p_s_check.png","3","68","shape,pattern,color","230","1",""
"null","566719","HierDyocyd5825","sub22","10","04","feedback","test","null","","","na","","230","",""
"826.4000000059605","567546","HierDyocyd5825","sub22","10","04","rl","test","72","img/p_t_stripes.png","5","72","shape,pattern,color","231","1",""
"null","568551","HierDyocyd5825","sub22","10","04","feedback","test","null","","","na","","231","",""
"832.0999999940395","569384","HierDyocyd5825","sub22","10","04","rl","test","74","img/b_t_stripes.png","6","74","shape,pattern,color","232","1",""
"null","570389","HierDyocyd5825","sub22","10","04","feedback","test","null","","","na","","232","",""
"920.4000000059605","571310","HierDyocyd5825","sub22","10","04","rl","test","83","img/b_s_stripes.png","2","83","shape,pattern,color","233","1",""
"null","572317","HierDyocyd5825","sub22","10","04","feedback","test","null","","","na","","233","",""
"895","573213","HierDyocyd5825","sub22","10","04","rl","test","70","img/b_s_check.png","4","70","shape,pattern,color","234","1",""
"null","574222","HierDyocyd5825","sub22","10","04","feedback","test","null","","","na","","234","",""
"673.9000000059605","574897","HierDyocyd5825","sub22","10","04","rl","test","75","img/p_t_check.png","7","75","shape,pattern,color","235","1",""
"null","575901","HierDyocyd5825","sub22","10","04","feedback","test","null","","","na","","235","",""
"1180.0999999940395","577082","HierDyocyd5825","sub22","10","04","rl","test","83","img/b_t_stripes.png","6","74","shape,pattern,color","236","0",""
"null","578087","HierDyocyd5825","sub22","10","04","feedback","test","null","","","na","","236","",""
"2140","580228","HierDyocyd5825","sub22","10","04","rl","test","72","img/p_t_stripes.png","5","72","shape,pattern,color","237","1",""
"null","581236","HierDyocyd5825","sub22","10","04","feedback","test","null","","","na","","237","",""
"767.5999999940395","582005","HierDyocyd5825","sub22","10","04","rl","test","74","img/b_t_stripes.png","6","74","shape,pattern,color","238","1",""
"null","583015","HierDyocyd5825","sub22","10","04","feedback","test","null","","","na","","238","",""
"1130.4000000059605","584146","HierDyocyd5825","sub22","10","04","rl","test","65","img/p_s_stripes.png","1","65","shape,pattern,color","239","1",""
"null","585150","HierDyocyd5825","sub22","10","04","feedback","test","null","","","na","","239","",""
"1420.5","586571","HierDyocyd5825","sub22","10","04","rl","test","76","img/b_t_check.png","8","76","shape,pattern,color","240","1",""
"null","587582","HierDyocyd5825","sub22","10","04","feedback","test","null","","","na","","240","",""
"1350.699999988079","588934","HierDyocyd5825","sub22","10","04","rl","test","83","img/b_s_stripes.png","2","83","shape,pattern,color","241","1",""
"null","589940","HierDyocyd5825","sub22","10","04","feedback","test","null","","","na","","241","",""
"970.5999999940395","590912","HierDyocyd5825","sub22","10","04","rl","test","83","img/b_s_stripes.png","2","83","shape,pattern,color","242","1",""
"null","591917","HierDyocyd5825","sub22","10","04","feedback","test","null","","","na","","242","",""
"1897.5","593815","HierDyocyd5825","sub22","10","04","rl","test","76","img/b_t_check.png","8","76","shape,pattern,color","243","1",""
"null","594822","HierDyocyd5825","sub22","10","04","feedback","test","null","","","na","","243","",""
"2037.699999988079","596861","HierDyocyd5825","sub22","10","04","rl","test","74","img/p_t_check.png","7","75","shape,pattern,color","244","0",""
"null","597869","HierDyocyd5825","sub22","10","04","feedback","test","null","","","na","","244","",""
"1703.0999999940395","599573","HierDyocyd5825","sub22","10","04","rl","test","68","img/p_s_check.png","3","68","shape,pattern,color","245","1",""
"null","600579","HierDyocyd5825","sub22","10","04","feedback","test","null","","","na","","245","",""
"935.9000000059605","601516","HierDyocyd5825","sub22","10","04","rl","test","65","img/p_s_stripes.png","1","65","shape,pattern,color","246","1",""
"null","602526","HierDyocyd5825","sub22","10","04","feedback","test","null","","","na","","246","",""
"1098.9000000059605","603626","HierDyocyd5825","sub22","10","04","rl","test","70","img/b_s_check.png","4","70","shape,pattern,color","247","1",""
"null","604636","HierDyocyd5825","sub22","10","04","feedback","test","null","","","na","","247","",""
"1652.300000011921","606289","HierDyocyd5825","sub22","10","04","rl","test","72","img/p_t_stripes.png","5","72","shape,pattern,color","248","1",""
"null","607291","HierDyocyd5825","sub22","10","04","feedback","test","null","","","na","","248","",""
"4766.899999976158","612063","HierDyocyd5825","sub22","10","04","","","","","","","","","","{""Q0"":""6""}"
"3316.2999999821186","615381","HierDyocyd5825","sub22","10","04","","","","","","","","","","{""Q0"":""Rhythm""}"
"6662.199999988079","622044","HierDyocyd5825","sub22","10","04","","","","","","","","","",""
