"rt","time_elapsed","subject","subID","group","day","trialType","phase","key_press","stim","stimNum","corrresp","hierarchy","trialNum","corr","responses"
"2650.400000035763","2653","HierDy0ejb0gfl","sub19","07","03","","","","","","","","","",""
"","4972","HierDy0ejb0gfl","sub19","07","03","fullscreen","","","","","","","","",""
"4622.199999988079","9625","HierDy0ejb0gfl","sub19","07","03","","prac","","","","","","","",""
"1167.800000011921","10796","HierDy0ejb0gfl","sub19","07","03","","","32","","","","","","",""
"938.2000000476837","11735","HierDy0ejb0gfl","sub19","07","03","","prac","","","","","","","",""
"1175.1000000238419","12913","HierDy0ejb0gfl","sub19","07","03","rl","test","70","img/o_s_dots.png","4","70","pattern,color,shape","1","1",""
"null","13927","HierDy0ejb0gfl","sub19","07","03","feedback","test","null","","","na","","1","",""
"1201.6000000238419","15130","HierDy0ejb0gfl","sub19","07","03","rl","test","74","img/b_s_stripes.png","6","74","pattern,color,shape","2","1",""
"null","16142","HierDy0ejb0gfl","sub19","07","03","feedback","test","null","","","na","","2","",""
"1636.5","17779","HierDy0ejb0gfl","sub19","07","03","rl","test","68","img/o_c_dots.png","3","68","pattern,color,shape","3","1",""
"null","18788","HierDy0ejb0gfl","sub19","07","03","feedback","test","null","","","na","","3","",""
"994","19782","HierDy0ejb0gfl","sub19","07","03","rl","test","65","img/b_c_dots.png","1","65","pattern,color,shape","4","1",""
"null","20788","HierDy0ejb0gfl","sub19","07","03","feedback","test","null","","","na","","4","",""
"1384","22173","HierDy0ejb0gfl","sub19","07","03","rl","test","75","img/o_c_stripes.png","7","75","pattern,color,shape","5","1",""
"null","23183","HierDy0ejb0gfl","sub19","07","03","feedback","test","null","","","na","","5","",""
"856.5","24041","HierDy0ejb0gfl","sub19","07","03","rl","test","72","img/b_c_stripes.png","5","72","pattern,color,shape","6","1",""
"null","25046","HierDy0ejb0gfl","sub19","07","03","feedback","test","null","","","na","","6","",""
"1329.300000011921","26376","HierDy0ejb0gfl","sub19","07","03","rl","test","83","img/b_s_dots.png","2","83","pattern,color,shape","7","1",""
"null","27379","HierDy0ejb0gfl","sub19","07","03","feedback","test","null","","","na","","7","",""
"1170.8999999761581","28551","HierDy0ejb0gfl","sub19","07","03","rl","test","75","img/o_c_stripes.png","7","75","pattern,color,shape","8","1",""
"null","29555","HierDy0ejb0gfl","sub19","07","03","feedback","test","null","","","na","","8","",""
"2228.2000000476837","31785","HierDy0ejb0gfl","sub19","07","03","rl","test","74","img/b_s_stripes.png","6","74","pattern,color,shape","9","1",""
"null","32788","HierDy0ejb0gfl","sub19","07","03","feedback","test","null","","","na","","9","",""
"861.1999999880791","33650","HierDy0ejb0gfl","sub19","07","03","rl","test","76","img/o_s_stripes.png","8","76","pattern,color,shape","10","1",""
"null","34659","HierDy0ejb0gfl","sub19","07","03","feedback","test","null","","","na","","10","",""
"655.6000000238419","35316","HierDy0ejb0gfl","sub19","07","03","rl","test","76","img/o_s_stripes.png","8","76","pattern,color,shape","11","1",""
"null","36324","HierDy0ejb0gfl","sub19","07","03","feedback","test","null","","","na","","11","",""
"692.5","37017","HierDy0ejb0gfl","sub19","07","03","rl","test","65","img/b_c_dots.png","1","65","pattern,color,shape","12","1",""
"null","38021","HierDy0ejb0gfl","sub19","07","03","feedback","test","null","","","na","","12","",""
"1188.800000011921","39211","HierDy0ejb0gfl","sub19","07","03","rl","test","70","img/o_s_dots.png","4","70","pattern,color,shape","13","1",""
"null","40219","HierDy0ejb0gfl","sub19","07","03","feedback","test","null","","","na","","13","",""
"1143.4000000357628","41364","HierDy0ejb0gfl","sub19","07","03","rl","test","68","img/o_c_dots.png","3","68","pattern,color,shape","14","1",""
"null","42370","HierDy0ejb0gfl","sub19","07","03","feedback","test","null","","","na","","14","",""
"671.6000000238419","43043","HierDy0ejb0gfl","sub19","07","03","rl","test","70","img/o_s_dots.png","4","70","pattern,color,shape","15","1",""
"null","44051","HierDy0ejb0gfl","sub19","07","03","feedback","test","null","","","na","","15","",""
"725.6000000238419","44778","HierDy0ejb0gfl","sub19","07","03","rl","test","83","img/b_s_dots.png","2","83","pattern,color,shape","16","1",""
"null","45789","HierDy0ejb0gfl","sub19","07","03","feedback","test","null","","","na","","16","",""
"773.8000000119209","46563","HierDy0ejb0gfl","sub19","07","03","rl","test","76","img/o_s_stripes.png","8","76","pattern,color,shape","17","1",""
"null","47575","HierDy0ejb0gfl","sub19","07","03","feedback","test","null","","","na","","17","",""
"886.4000000357628","48463","HierDy0ejb0gfl","sub19","07","03","rl","test","72","img/b_c_stripes.png","5","72","pattern,color,shape","18","1",""
"null","49468","HierDy0ejb0gfl","sub19","07","03","feedback","test","null","","","na","","18","",""
"1242","50711","HierDy0ejb0gfl","sub19","07","03","rl","test","83","img/b_s_dots.png","2","83","pattern,color,shape","19","1",""
"null","51715","HierDy0ejb0gfl","sub19","07","03","feedback","test","null","","","na","","19","",""
"2055.800000011921","53771","HierDy0ejb0gfl","sub19","07","03","rl","test","72","img/b_c_stripes.png","5","72","pattern,color,shape","20","1",""
"null","54783","HierDy0ejb0gfl","sub19","07","03","feedback","test","null","","","na","","20","",""
"1694.800000011921","56479","HierDy0ejb0gfl","sub19","07","03","rl","test","68","img/o_c_dots.png","3","68","pattern,color,shape","21","1",""
"null","57487","HierDy0ejb0gfl","sub19","07","03","feedback","test","null","","","na","","21","",""
"2033.800000011921","59522","HierDy0ejb0gfl","sub19","07","03","rl","test","75","img/o_c_stripes.png","7","75","pattern,color,shape","22","1",""
"null","60533","HierDy0ejb0gfl","sub19","07","03","feedback","test","null","","","na","","22","",""
"956.6999999880791","61490","HierDy0ejb0gfl","sub19","07","03","rl","test","74","img/b_s_stripes.png","6","74","pattern,color,shape","23","1",""
"null","62502","HierDy0ejb0gfl","sub19","07","03","feedback","test","null","","","na","","23","",""
"1546.4000000357628","64050","HierDy0ejb0gfl","sub19","07","03","rl","test","83","img/b_s_dots.png","2","83","pattern,color,shape","24","1",""
"null","65064","HierDy0ejb0gfl","sub19","07","03","feedback","test","null","","","na","","24","",""
"743.1000000238419","65808","HierDy0ejb0gfl","sub19","07","03","rl","test","65","img/b_c_dots.png","1","65","pattern,color,shape","25","1",""
"null","66816","HierDy0ejb0gfl","sub19","07","03","feedback","test","null","","","na","","25","",""
"1449.7000000476837","68266","HierDy0ejb0gfl","sub19","07","03","rl","test","75","img/o_c_stripes.png","7","75","pattern,color,shape","26","1",""
"null","69277","HierDy0ejb0gfl","sub19","07","03","feedback","test","null","","","na","","26","",""
"894.1999999880791","70172","HierDy0ejb0gfl","sub19","07","03","rl","test","76","img/o_s_stripes.png","8","76","pattern,color,shape","27","1",""
"null","71183","HierDy0ejb0gfl","sub19","07","03","feedback","test","null","","","na","","27","",""
"1484.300000011921","72669","HierDy0ejb0gfl","sub19","07","03","rl","test","65","img/b_c_dots.png","1","65","pattern,color,shape","28","1",""
"null","73680","HierDy0ejb0gfl","sub19","07","03","feedback","test","null","","","na","","28","",""
"674.6000000238419","74355","HierDy0ejb0gfl","sub19","07","03","rl","test","65","img/b_c_dots.png","1","65","pattern,color,shape","29","1",""
"null","75367","HierDy0ejb0gfl","sub19","07","03","feedback","test","null","","","na","","29","",""
"1332.800000011921","76700","HierDy0ejb0gfl","sub19","07","03","rl","test","70","img/o_s_dots.png","4","70","pattern,color,shape","30","1",""
"null","77709","HierDy0ejb0gfl","sub19","07","03","feedback","test","null","","","na","","30","",""
"null","80211","HierDy0ejb0gfl","sub19","07","03","rl","test","null","img/o_c_dots.png","3","68","pattern,color,shape","31","0",""
"null","81222","HierDy0ejb0gfl","sub19","07","03","feedback","test","null","","","na","","31","",""
"1188.300000011921","82411","HierDy0ejb0gfl","sub19","07","03","rl","test","72","img/b_c_stripes.png","5","72","pattern,color,shape","32","1",""
"null","83424","HierDy0ejb0gfl","sub19","07","03","feedback","test","null","","","na","","32","",""
"2324.199999988079","85749","HierDy0ejb0gfl","sub19","07","03","rl","test","75","img/o_c_stripes.png","7","75","pattern,color,shape","33","1",""
"null","86756","HierDy0ejb0gfl","sub19","07","03","feedback","test","null","","","na","","33","",""
"961.3999999761581","87718","HierDy0ejb0gfl","sub19","07","03","rl","test","74","img/b_s_stripes.png","6","74","pattern,color,shape","34","1",""
"null","88726","HierDy0ejb0gfl","sub19","07","03","feedback","test","null","","","na","","34","",""
"934.0999999642372","89661","HierDy0ejb0gfl","sub19","07","03","rl","test","68","img/o_c_dots.png","3","68","pattern,color,shape","35","1",""
"null","90668","HierDy0ejb0gfl","sub19","07","03","feedback","test","null","","","na","","35","",""
"1411.699999988079","92081","HierDy0ejb0gfl","sub19","07","03","rl","test","83","img/b_s_stripes.png","6","74","pattern,color,shape","36","0",""
"null","93087","HierDy0ejb0gfl","sub19","07","03","feedback","test","null","","","na","","36","",""
"2479.399999976158","95568","HierDy0ejb0gfl","sub19","07","03","rl","test","83","img/b_s_dots.png","2","83","pattern,color,shape","37","1",""
"null","96575","HierDy0ejb0gfl","sub19","07","03","feedback","test","null","","","na","","37","",""
"1659.5","98235","HierDy0ejb0gfl","sub19","07","03","rl","test","75","img/o_c_stripes.png","7","75","pattern,color,shape","38","1",""
"null","99244","HierDy0ejb0gfl","sub19","07","03","feedback","test","null","","","na","","38","",""
"1444.199999988079","100690","HierDy0ejb0gfl","sub19","07","03","rl","test","70","img/o_s_dots.png","4","70","pattern,color,shape","39","1",""
"null","101700","HierDy0ejb0gfl","sub19","07","03","feedback","test","null","","","na","","39","",""
"1958.300000011921","103660","HierDy0ejb0gfl","sub19","07","03","rl","test","72","img/b_c_stripes.png","5","72","pattern,color,shape","40","1",""
"null","104662","HierDy0ejb0gfl","sub19","07","03","feedback","test","null","","","na","","40","",""
"1593.300000011921","106256","HierDy0ejb0gfl","sub19","07","03","rl","test","76","img/o_s_stripes.png","8","76","pattern,color,shape","41","1",""
"null","107260","HierDy0ejb0gfl","sub19","07","03","feedback","test","null","","","na","","41","",""
"2119.899999976158","109381","HierDy0ejb0gfl","sub19","07","03","rl","test","83","img/b_s_stripes.png","6","74","pattern,color,shape","42","0",""
"null","110389","HierDy0ejb0gfl","sub19","07","03","feedback","test","null","","","na","","42","",""
"1240.9000000357628","111631","HierDy0ejb0gfl","sub19","07","03","rl","test","74","img/b_s_stripes.png","6","74","pattern,color,shape","43","1",""
"null","112640","HierDy0ejb0gfl","sub19","07","03","feedback","test","null","","","na","","43","",""
"961.4000000357628","113603","HierDy0ejb0gfl","sub19","07","03","rl","test","65","img/b_c_dots.png","1","65","pattern,color,shape","44","1",""
"null","114613","HierDy0ejb0gfl","sub19","07","03","feedback","test","null","","","na","","44","",""
"1542.199999988079","116156","HierDy0ejb0gfl","sub19","07","03","rl","test","70","img/o_s_dots.png","4","70","pattern,color,shape","45","1",""
"null","117168","HierDy0ejb0gfl","sub19","07","03","feedback","test","null","","","na","","45","",""
"1839","119008","HierDy0ejb0gfl","sub19","07","03","rl","test","68","img/o_c_dots.png","3","68","pattern,color,shape","46","1",""
"null","120013","HierDy0ejb0gfl","sub19","07","03","feedback","test","null","","","na","","46","",""
"1632.3999999761581","121646","HierDy0ejb0gfl","sub19","07","03","rl","test","83","img/b_s_dots.png","2","83","pattern,color,shape","47","1",""
"null","122653","HierDy0ejb0gfl","sub19","07","03","feedback","test","null","","","na","","47","",""
"1083","123737","HierDy0ejb0gfl","sub19","07","03","rl","test","76","img/o_s_stripes.png","8","76","pattern,color,shape","48","1",""
"null","124745","HierDy0ejb0gfl","sub19","07","03","feedback","test","null","","","na","","48","",""
"706.5","125452","HierDy0ejb0gfl","sub19","07","03","rl","test","72","img/b_c_stripes.png","5","72","pattern,color,shape","49","1",""
"null","126460","HierDy0ejb0gfl","sub19","07","03","feedback","test","null","","","na","","49","",""
"816.8000000119209","127277","HierDy0ejb0gfl","sub19","07","03","rl","test","75","img/o_c_stripes.png","7","75","pattern,color,shape","50","1",""
"null","128287","HierDy0ejb0gfl","sub19","07","03","feedback","test","null","","","na","","50","",""
"641.7999999523163","128929","HierDy0ejb0gfl","sub19","07","03","rl","test","72","img/b_c_stripes.png","5","72","pattern,color,shape","51","1",""
"null","129933","HierDy0ejb0gfl","sub19","07","03","feedback","test","null","","","na","","51","",""
"725.3000000119209","130659","HierDy0ejb0gfl","sub19","07","03","rl","test","76","img/o_s_stripes.png","8","76","pattern,color,shape","52","1",""
"null","131668","HierDy0ejb0gfl","sub19","07","03","feedback","test","null","","","na","","52","",""
"813.9000000357628","132483","HierDy0ejb0gfl","sub19","07","03","rl","test","83","img/o_s_dots.png","4","70","pattern,color,shape","53","0",""
"null","133493","HierDy0ejb0gfl","sub19","07","03","feedback","test","null","","","na","","53","",""
"1340.8999999761581","134835","HierDy0ejb0gfl","sub19","07","03","rl","test","68","img/o_c_dots.png","3","68","pattern,color,shape","54","1",""
"null","135844","HierDy0ejb0gfl","sub19","07","03","feedback","test","null","","","na","","54","",""
"1014.1000000238419","136859","HierDy0ejb0gfl","sub19","07","03","rl","test","76","img/o_s_stripes.png","8","76","pattern,color,shape","55","1",""
"null","137868","HierDy0ejb0gfl","sub19","07","03","feedback","test","null","","","na","","55","",""
"686.6999999880791","138555","HierDy0ejb0gfl","sub19","07","03","rl","test","72","img/b_c_stripes.png","5","72","pattern,color,shape","56","1",""
"null","139566","HierDy0ejb0gfl","sub19","07","03","feedback","test","null","","","na","","56","",""
"1037.699999988079","140605","HierDy0ejb0gfl","sub19","07","03","rl","test","65","img/b_c_dots.png","1","65","pattern,color,shape","57","1",""
"null","141612","HierDy0ejb0gfl","sub19","07","03","feedback","test","null","","","na","","57","",""
"2334.800000011921","143948","HierDy0ejb0gfl","sub19","07","03","rl","test","74","img/b_s_stripes.png","6","74","pattern,color,shape","58","1",""
"null","144959","HierDy0ejb0gfl","sub19","07","03","feedback","test","null","","","na","","58","",""
"2312.399999976158","147272","HierDy0ejb0gfl","sub19","07","03","rl","test","83","img/b_s_dots.png","2","83","pattern,color,shape","59","1",""
"null","148276","HierDy0ejb0gfl","sub19","07","03","feedback","test","null","","","na","","59","",""
"1155","149432","HierDy0ejb0gfl","sub19","07","03","rl","test","83","img/b_s_dots.png","2","83","pattern,color,shape","60","1",""
"null","150439","HierDy0ejb0gfl","sub19","07","03","feedback","test","null","","","na","","60","",""
"799.0999999642372","151240","HierDy0ejb0gfl","sub19","07","03","rl","test","65","img/b_c_dots.png","1","65","pattern,color,shape","61","1",""
"null","152244","HierDy0ejb0gfl","sub19","07","03","feedback","test","null","","","na","","61","",""
"714.6000000238419","152960","HierDy0ejb0gfl","sub19","07","03","rl","test","70","img/o_s_dots.png","4","70","pattern,color,shape","62","1",""
"null","153965","HierDy0ejb0gfl","sub19","07","03","feedback","test","null","","","na","","62","",""
"1294.5999999642372","155262","HierDy0ejb0gfl","sub19","07","03","rl","test","75","img/o_c_stripes.png","7","75","pattern,color,shape","63","1",""
"null","156272","HierDy0ejb0gfl","sub19","07","03","feedback","test","null","","","na","","63","",""
"1610.3999999761581","157883","HierDy0ejb0gfl","sub19","07","03","rl","test","68","img/o_c_dots.png","3","68","pattern,color,shape","64","1",""
"null","158897","HierDy0ejb0gfl","sub19","07","03","feedback","test","null","","","na","","64","",""
"1606.9000000357628","160505","HierDy0ejb0gfl","sub19","07","03","rl","test","74","img/b_s_stripes.png","6","74","pattern,color,shape","65","1",""
"null","161508","HierDy0ejb0gfl","sub19","07","03","feedback","test","null","","","na","","65","",""
"804.1000000238419","162314","HierDy0ejb0gfl","sub19","07","03","rl","test","72","img/b_c_dots.png","1","65","pattern,color,shape","66","0",""
"null","163316","HierDy0ejb0gfl","sub19","07","03","feedback","test","null","","","na","","66","",""
"724.3999999761581","164042","HierDy0ejb0gfl","sub19","07","03","rl","test","72","img/b_c_stripes.png","5","72","pattern,color,shape","67","1",""
"null","165045","HierDy0ejb0gfl","sub19","07","03","feedback","test","null","","","na","","67","",""
"1493.5","166540","HierDy0ejb0gfl","sub19","07","03","rl","test","70","img/o_s_dots.png","4","70","pattern,color,shape","68","1",""
"null","167549","HierDy0ejb0gfl","sub19","07","03","feedback","test","null","","","na","","68","",""
"1684.699999988079","169235","HierDy0ejb0gfl","sub19","07","03","rl","test","76","img/o_s_stripes.png","8","76","pattern,color,shape","69","1",""
"null","170241","HierDy0ejb0gfl","sub19","07","03","feedback","test","null","","","na","","69","",""
"620.5","170862","HierDy0ejb0gfl","sub19","07","03","rl","test","76","img/o_s_stripes.png","8","76","pattern,color,shape","70","1",""
"null","171868","HierDy0ejb0gfl","sub19","07","03","feedback","test","null","","","na","","70","",""
"null","174377","HierDy0ejb0gfl","sub19","07","03","rl","test","null","img/o_s_dots.png","4","70","pattern,color,shape","71","0",""
"null","175382","HierDy0ejb0gfl","sub19","07","03","feedback","test","null","","","na","","71","",""
"2111.199999988079","177494","HierDy0ejb0gfl","sub19","07","03","rl","test","75","img/o_c_stripes.png","7","75","pattern,color,shape","72","1",""
"null","178502","HierDy0ejb0gfl","sub19","07","03","feedback","test","null","","","na","","72","",""
"1121","179624","HierDy0ejb0gfl","sub19","07","03","rl","test","83","img/b_s_dots.png","2","83","pattern,color,shape","73","1",""
"null","180629","HierDy0ejb0gfl","sub19","07","03","feedback","test","null","","","na","","73","",""
"2353.699999988079","182984","HierDy0ejb0gfl","sub19","07","03","rl","test","83","img/o_c_dots.png","3","68","pattern,color,shape","74","0",""
"null","183990","HierDy0ejb0gfl","sub19","07","03","feedback","test","null","","","na","","74","",""
"null","186494","HierDy0ejb0gfl","sub19","07","03","rl","test","null","img/b_s_dots.png","2","83","pattern,color,shape","75","0",""
"null","187502","HierDy0ejb0gfl","sub19","07","03","feedback","test","null","","","na","","75","",""
"1913.7000000476837","189416","HierDy0ejb0gfl","sub19","07","03","rl","test","75","img/o_c_stripes.png","7","75","pattern,color,shape","76","1",""
"null","190421","HierDy0ejb0gfl","sub19","07","03","feedback","test","null","","","na","","76","",""
"1372.300000011921","191794","HierDy0ejb0gfl","sub19","07","03","rl","test","68","img/o_c_dots.png","3","68","pattern,color,shape","77","1",""
"null","192798","HierDy0ejb0gfl","sub19","07","03","feedback","test","null","","","na","","77","",""
"1692.6000000238419","194491","HierDy0ejb0gfl","sub19","07","03","rl","test","72","img/b_c_stripes.png","5","72","pattern,color,shape","78","1",""
"null","195493","HierDy0ejb0gfl","sub19","07","03","feedback","test","null","","","na","","78","",""
"2123.399999976158","197617","HierDy0ejb0gfl","sub19","07","03","rl","test","74","img/b_s_stripes.png","6","74","pattern,color,shape","79","1",""
"null","198621","HierDy0ejb0gfl","sub19","07","03","feedback","test","null","","","na","","79","",""
"949.9000000357628","199572","HierDy0ejb0gfl","sub19","07","03","rl","test","65","img/b_c_dots.png","1","65","pattern,color,shape","80","1",""
"null","200585","HierDy0ejb0gfl","sub19","07","03","feedback","test","null","","","na","","80","",""
"987.7000000476837","201573","HierDy0ejb0gfl","sub19","07","03","rl","test","74","img/b_s_stripes.png","6","74","pattern,color,shape","81","1",""
"null","202582","HierDy0ejb0gfl","sub19","07","03","feedback","test","null","","","na","","81","",""
"716.5","203300","HierDy0ejb0gfl","sub19","07","03","rl","test","76","img/o_s_stripes.png","8","76","pattern,color,shape","82","1",""
"null","204314","HierDy0ejb0gfl","sub19","07","03","feedback","test","null","","","na","","82","",""
"1947.6000000238419","206262","HierDy0ejb0gfl","sub19","07","03","rl","test","68","img/o_c_dots.png","3","68","pattern,color,shape","83","1",""
"null","207271","HierDy0ejb0gfl","sub19","07","03","feedback","test","null","","","na","","83","",""
"1257.300000011921","208529","HierDy0ejb0gfl","sub19","07","03","rl","test","75","img/o_c_stripes.png","7","75","pattern,color,shape","84","1",""
"null","209533","HierDy0ejb0gfl","sub19","07","03","feedback","test","null","","","na","","84","",""
"1742.699999988079","211276","HierDy0ejb0gfl","sub19","07","03","rl","test","65","img/b_c_dots.png","1","65","pattern,color,shape","85","1",""
"null","212286","HierDy0ejb0gfl","sub19","07","03","feedback","test","null","","","na","","85","",""
"1299.199999988079","213586","HierDy0ejb0gfl","sub19","07","03","rl","test","70","img/o_s_dots.png","4","70","pattern,color,shape","86","1",""
"null","214590","HierDy0ejb0gfl","sub19","07","03","feedback","test","null","","","na","","86","",""
"1681.199999988079","216272","HierDy0ejb0gfl","sub19","07","03","rl","test","83","img/b_s_dots.png","2","83","pattern,color,shape","87","1",""
"null","217281","HierDy0ejb0gfl","sub19","07","03","feedback","test","null","","","na","","87","",""
"1530.6000000238419","218812","HierDy0ejb0gfl","sub19","07","03","rl","test","72","img/b_c_stripes.png","5","72","pattern,color,shape","88","1",""
"null","219822","HierDy0ejb0gfl","sub19","07","03","feedback","test","null","","","na","","88","",""
"685.3999999761581","220508","HierDy0ejb0gfl","sub19","07","03","rl","test","72","img/b_c_stripes.png","5","72","pattern,color,shape","89","1",""
"null","221520","HierDy0ejb0gfl","sub19","07","03","feedback","test","null","","","na","","89","",""
"2227.599999964237","223748","HierDy0ejb0gfl","sub19","07","03","rl","test","68","img/o_c_dots.png","3","68","pattern,color,shape","90","1",""
"null","224760","HierDy0ejb0gfl","sub19","07","03","feedback","test","null","","","na","","90","",""
"null","227266","HierDy0ejb0gfl","sub19","07","03","rl","test","null","img/o_c_stripes.png","7","75","pattern,color,shape","91","0",""
"null","228274","HierDy0ejb0gfl","sub19","07","03","feedback","test","null","","","na","","91","",""
"1801.5999999642372","230076","HierDy0ejb0gfl","sub19","07","03","rl","test","83","img/b_s_dots.png","2","83","pattern,color,shape","92","1",""
"null","231086","HierDy0ejb0gfl","sub19","07","03","feedback","test","null","","","na","","92","",""
"2337.199999988079","233424","HierDy0ejb0gfl","sub19","07","03","rl","test","68","img/o_s_stripes.png","8","76","pattern,color,shape","93","0",""
"null","234431","HierDy0ejb0gfl","sub19","07","03","feedback","test","null","","","na","","93","",""
"1308.800000011921","235741","HierDy0ejb0gfl","sub19","07","03","rl","test","65","img/b_c_dots.png","1","65","pattern,color,shape","94","1",""
"null","236751","HierDy0ejb0gfl","sub19","07","03","feedback","test","null","","","na","","94","",""
"2050.199999988079","238802","HierDy0ejb0gfl","sub19","07","03","rl","test","83","img/b_s_stripes.png","6","74","pattern,color,shape","95","0",""
"null","239809","HierDy0ejb0gfl","sub19","07","03","feedback","test","null","","","na","","95","",""
"792.1999999880791","240602","HierDy0ejb0gfl","sub19","07","03","rl","test","65","img/b_c_dots.png","1","65","pattern,color,shape","96","1",""
"null","241610","HierDy0ejb0gfl","sub19","07","03","feedback","test","null","","","na","","96","",""
"1292.699999988079","242904","HierDy0ejb0gfl","sub19","07","03","rl","test","70","img/o_s_dots.png","4","70","pattern,color,shape","97","1",""
"null","243912","HierDy0ejb0gfl","sub19","07","03","feedback","test","null","","","na","","97","",""
"2360.600000023842","246273","HierDy0ejb0gfl","sub19","07","03","rl","test","68","img/o_c_dots.png","3","68","pattern,color,shape","98","1",""
"null","247277","HierDy0ejb0gfl","sub19","07","03","feedback","test","null","","","na","","98","",""
"1562.300000011921","248840","HierDy0ejb0gfl","sub19","07","03","rl","test","74","img/b_s_stripes.png","6","74","pattern,color,shape","99","1",""
"null","249851","HierDy0ejb0gfl","sub19","07","03","feedback","test","null","","","na","","99","",""
"855","250707","HierDy0ejb0gfl","sub19","07","03","rl","test","70","img/o_s_dots.png","4","70","pattern,color,shape","100","1",""
"null","251714","HierDy0ejb0gfl","sub19","07","03","feedback","test","null","","","na","","100","",""
"1843.8999999761581","253559","HierDy0ejb0gfl","sub19","07","03","rl","test","74","img/o_s_stripes.png","8","76","pattern,color,shape","101","0",""
"null","254567","HierDy0ejb0gfl","sub19","07","03","feedback","test","null","","","na","","101","",""
"837.5","255405","HierDy0ejb0gfl","sub19","07","03","rl","test","72","img/b_c_stripes.png","5","72","pattern,color,shape","102","1",""
"null","256418","HierDy0ejb0gfl","sub19","07","03","feedback","test","null","","","na","","102","",""
"670.1999999880791","257089","HierDy0ejb0gfl","sub19","07","03","rl","test","72","img/b_c_stripes.png","5","72","pattern,color,shape","103","1",""
"null","258095","HierDy0ejb0gfl","sub19","07","03","feedback","test","null","","","na","","103","",""
"1144.5999999642372","259240","HierDy0ejb0gfl","sub19","07","03","rl","test","68","img/o_c_dots.png","3","68","pattern,color,shape","104","1",""
"null","260246","HierDy0ejb0gfl","sub19","07","03","feedback","test","null","","","na","","104","",""
"null","262755","HierDy0ejb0gfl","sub19","07","03","rl","test","null","img/b_s_dots.png","2","83","pattern,color,shape","105","0",""
"null","263761","HierDy0ejb0gfl","sub19","07","03","feedback","test","null","","","na","","105","",""
"1938.699999988079","265701","HierDy0ejb0gfl","sub19","07","03","rl","test","75","img/o_c_stripes.png","7","75","pattern,color,shape","106","1",""
"null","266710","HierDy0ejb0gfl","sub19","07","03","feedback","test","null","","","na","","106","",""
"600.0999999642372","267311","HierDy0ejb0gfl","sub19","07","03","rl","test","83","img/b_s_dots.png","2","83","pattern,color,shape","107","1",""
"null","268318","HierDy0ejb0gfl","sub19","07","03","feedback","test","null","","","na","","107","",""
"1001.2999999523163","269320","HierDy0ejb0gfl","sub19","07","03","rl","test","65","img/b_c_dots.png","1","65","pattern,color,shape","108","1",""
"null","270328","HierDy0ejb0gfl","sub19","07","03","feedback","test","null","","","na","","108","",""
"1348.4000000357628","271677","HierDy0ejb0gfl","sub19","07","03","rl","test","75","img/o_c_stripes.png","7","75","pattern,color,shape","109","1",""
"null","272687","HierDy0ejb0gfl","sub19","07","03","feedback","test","null","","","na","","109","",""
"687.1999999880791","273375","HierDy0ejb0gfl","sub19","07","03","rl","test","76","img/o_s_stripes.png","8","76","pattern,color,shape","110","1",""
"null","274384","HierDy0ejb0gfl","sub19","07","03","feedback","test","null","","","na","","110","",""
"1764","276149","HierDy0ejb0gfl","sub19","07","03","rl","test","70","img/o_s_dots.png","4","70","pattern,color,shape","111","1",""
"null","277161","HierDy0ejb0gfl","sub19","07","03","feedback","test","null","","","na","","111","",""
"515.5","277677","HierDy0ejb0gfl","sub19","07","03","rl","test","70","img/o_s_dots.png","4","70","pattern,color,shape","112","1",""
"null","278690","HierDy0ejb0gfl","sub19","07","03","feedback","test","null","","","na","","112","",""
"2417","281108","HierDy0ejb0gfl","sub19","07","03","rl","test","75","img/b_s_stripes.png","6","74","pattern,color,shape","113","0",""
"null","282110","HierDy0ejb0gfl","sub19","07","03","feedback","test","null","","","na","","113","",""
"1423.0999999642372","283535","HierDy0ejb0gfl","sub19","07","03","rl","test","65","img/b_c_dots.png","1","65","pattern,color,shape","114","1",""
"null","284544","HierDy0ejb0gfl","sub19","07","03","feedback","test","null","","","na","","114","",""
"1371.1000000238419","285916","HierDy0ejb0gfl","sub19","07","03","rl","test","76","img/o_s_stripes.png","8","76","pattern,color,shape","115","1",""
"null","286918","HierDy0ejb0gfl","sub19","07","03","feedback","test","null","","","na","","115","",""
"1720.5999999642372","288640","HierDy0ejb0gfl","sub19","07","03","rl","test","75","img/o_c_stripes.png","7","75","pattern,color,shape","116","1",""
"null","289649","HierDy0ejb0gfl","sub19","07","03","feedback","test","null","","","na","","116","",""
"2180.899999976158","291830","HierDy0ejb0gfl","sub19","07","03","rl","test","83","img/b_s_dots.png","2","83","pattern,color,shape","117","1",""
"null","292842","HierDy0ejb0gfl","sub19","07","03","feedback","test","null","","","na","","117","",""
"812.5","293655","HierDy0ejb0gfl","sub19","07","03","rl","test","65","img/b_c_stripes.png","5","72","pattern,color,shape","118","0",""
"null","294665","HierDy0ejb0gfl","sub19","07","03","feedback","test","null","","","na","","118","",""
"1242.199999988079","295909","HierDy0ejb0gfl","sub19","07","03","rl","test","68","img/o_c_dots.png","3","68","pattern,color,shape","119","1",""
"null","296913","HierDy0ejb0gfl","sub19","07","03","feedback","test","null","","","na","","119","",""
"2283.300000011921","299197","HierDy0ejb0gfl","sub19","07","03","rl","test","74","img/b_s_stripes.png","6","74","pattern,color,shape","120","1",""
"null","300209","HierDy0ejb0gfl","sub19","07","03","feedback","test","null","","","na","","120","",""
"1763.5","301975","HierDy0ejb0gfl","sub19","07","03","rl","test","83","img/b_s_dots.png","2","83","pattern,color,shape","121","1",""
"null","302985","HierDy0ejb0gfl","sub19","07","03","feedback","test","null","","","na","","121","",""
"1183.800000011921","304170","HierDy0ejb0gfl","sub19","07","03","rl","test","65","img/b_c_dots.png","1","65","pattern,color,shape","122","1",""
"null","305175","HierDy0ejb0gfl","sub19","07","03","feedback","test","null","","","na","","122","",""
"985.1999999880791","306163","HierDy0ejb0gfl","sub19","07","03","rl","test","72","img/b_c_stripes.png","5","72","pattern,color,shape","123","1",""
"null","307171","HierDy0ejb0gfl","sub19","07","03","feedback","test","null","","","na","","123","",""
"1210.6000000238419","308382","HierDy0ejb0gfl","sub19","07","03","rl","test","76","img/o_s_stripes.png","8","76","pattern,color,shape","124","1",""
"null","309393","HierDy0ejb0gfl","sub19","07","03","feedback","test","null","","","na","","124","",""
"1761.300000011921","311156","HierDy0ejb0gfl","sub19","07","03","rl","test","70","img/o_s_dots.png","4","70","pattern,color,shape","125","1",""
"null","312163","HierDy0ejb0gfl","sub19","07","03","feedback","test","null","","","na","","125","",""
"2288.800000011921","314453","HierDy0ejb0gfl","sub19","07","03","rl","test","83","img/b_s_stripes.png","6","74","pattern,color,shape","126","0",""
"null","315464","HierDy0ejb0gfl","sub19","07","03","feedback","test","null","","","na","","126","",""
"513.8000000119209","315979","HierDy0ejb0gfl","sub19","07","03","rl","test","74","img/b_c_stripes.png","5","72","pattern,color,shape","127","0",""
"null","316984","HierDy0ejb0gfl","sub19","07","03","feedback","test","null","","","na","","127","",""
"1417.800000011921","318403","HierDy0ejb0gfl","sub19","07","03","rl","test","75","img/o_c_stripes.png","7","75","pattern,color,shape","128","1",""
"null","319409","HierDy0ejb0gfl","sub19","07","03","feedback","test","null","","","na","","128","",""
"null","321916","HierDy0ejb0gfl","sub19","07","03","rl","test","null","img/o_c_dots.png","3","68","pattern,color,shape","129","0",""
"null","322922","HierDy0ejb0gfl","sub19","07","03","feedback","test","null","","","na","","129","",""
"2084.5","325007","HierDy0ejb0gfl","sub19","07","03","rl","test","68","img/o_c_dots.png","3","68","pattern,color,shape","130","1",""
"null","326019","HierDy0ejb0gfl","sub19","07","03","feedback","test","null","","","na","","130","",""
"1870.7000000476837","327891","HierDy0ejb0gfl","sub19","07","03","rl","test","75","img/o_c_stripes.png","7","75","pattern,color,shape","131","1",""
"null","328895","HierDy0ejb0gfl","sub19","07","03","feedback","test","null","","","na","","131","",""
"875.3000000119209","329772","HierDy0ejb0gfl","sub19","07","03","rl","test","65","img/b_c_dots.png","1","65","pattern,color,shape","132","1",""
"null","330778","HierDy0ejb0gfl","sub19","07","03","feedback","test","null","","","na","","132","",""
"1137.2999999523163","331915","HierDy0ejb0gfl","sub19","07","03","rl","test","76","img/o_s_stripes.png","8","76","pattern,color,shape","133","1",""
"null","332919","HierDy0ejb0gfl","sub19","07","03","feedback","test","null","","","na","","133","",""
"2052.300000011921","334972","HierDy0ejb0gfl","sub19","07","03","rl","test","68","img/b_s_dots.png","2","83","pattern,color,shape","134","0",""
"null","335976","HierDy0ejb0gfl","sub19","07","03","feedback","test","null","","","na","","134","",""
"757.6999999880791","336734","HierDy0ejb0gfl","sub19","07","03","rl","test","76","img/o_s_stripes.png","8","76","pattern,color,shape","135","1",""
"null","337746","HierDy0ejb0gfl","sub19","07","03","feedback","test","null","","","na","","135","",""
"1062.3999999761581","338809","HierDy0ejb0gfl","sub19","07","03","rl","test","76","img/o_s_dots.png","4","70","pattern,color,shape","136","0",""
"null","339815","HierDy0ejb0gfl","sub19","07","03","feedback","test","null","","","na","","136","",""
"1718.8999999761581","341535","HierDy0ejb0gfl","sub19","07","03","rl","test","68","img/o_c_dots.png","3","68","pattern,color,shape","137","1",""
"null","342544","HierDy0ejb0gfl","sub19","07","03","feedback","test","null","","","na","","137","",""
"2065.199999988079","344610","HierDy0ejb0gfl","sub19","07","03","rl","test","74","img/b_s_stripes.png","6","74","pattern,color,shape","138","1",""
"null","345620","HierDy0ejb0gfl","sub19","07","03","feedback","test","null","","","na","","138","",""
"1412.2999999523163","347033","HierDy0ejb0gfl","sub19","07","03","rl","test","75","img/o_c_stripes.png","7","75","pattern,color,shape","139","1",""
"null","348042","HierDy0ejb0gfl","sub19","07","03","feedback","test","null","","","na","","139","",""
"1174.3999999761581","349217","HierDy0ejb0gfl","sub19","07","03","rl","test","70","img/o_s_dots.png","4","70","pattern,color,shape","140","1",""
"null","350226","HierDy0ejb0gfl","sub19","07","03","feedback","test","null","","","na","","140","",""
"1433.699999988079","351660","HierDy0ejb0gfl","sub19","07","03","rl","test","72","img/b_c_stripes.png","5","72","pattern,color,shape","141","1",""
"null","352666","HierDy0ejb0gfl","sub19","07","03","feedback","test","null","","","na","","141","",""
"null","355176","HierDy0ejb0gfl","sub19","07","03","rl","test","null","img/b_s_dots.png","2","83","pattern,color,shape","142","0",""
"null","356183","HierDy0ejb0gfl","sub19","07","03","feedback","test","null","","","na","","142","",""
"1201.8999999761581","357386","HierDy0ejb0gfl","sub19","07","03","rl","test","74","img/b_s_stripes.png","6","74","pattern,color,shape","143","1",""
"null","358393","HierDy0ejb0gfl","sub19","07","03","feedback","test","null","","","na","","143","",""
"1718.5999999642372","360113","HierDy0ejb0gfl","sub19","07","03","rl","test","65","img/b_c_dots.png","1","65","pattern,color,shape","144","1",""
"null","361119","HierDy0ejb0gfl","sub19","07","03","feedback","test","null","","","na","","144","",""
"1947.699999988079","363067","HierDy0ejb0gfl","sub19","07","03","rl","test","74","img/b_s_stripes.png","6","74","pattern,color,shape","145","1",""
"null","364072","HierDy0ejb0gfl","sub19","07","03","feedback","test","null","","","na","","145","",""
"1399.5","365473","HierDy0ejb0gfl","sub19","07","03","rl","test","70","img/o_s_dots.png","4","70","pattern,color,shape","146","1",""
"null","366484","HierDy0ejb0gfl","sub19","07","03","feedback","test","null","","","na","","146","",""
"1757.300000011921","368242","HierDy0ejb0gfl","sub19","07","03","rl","test","83","img/b_c_dots.png","1","65","pattern,color,shape","147","0",""
"null","369248","HierDy0ejb0gfl","sub19","07","03","feedback","test","null","","","na","","147","",""
"748.5999999642372","369997","HierDy0ejb0gfl","sub19","07","03","rl","test","76","img/o_s_stripes.png","8","76","pattern,color,shape","148","1",""
"null","371002","HierDy0ejb0gfl","sub19","07","03","feedback","test","null","","","na","","148","",""
"2002.300000011921","373005","HierDy0ejb0gfl","sub19","07","03","rl","test","83","img/b_s_dots.png","2","83","pattern,color,shape","149","1",""
"null","374008","HierDy0ejb0gfl","sub19","07","03","feedback","test","null","","","na","","149","",""
"1331.199999988079","375341","HierDy0ejb0gfl","sub19","07","03","rl","test","75","img/o_c_stripes.png","7","75","pattern,color,shape","150","1",""
"null","376343","HierDy0ejb0gfl","sub19","07","03","feedback","test","null","","","na","","150","",""
"779.9000000357628","377124","HierDy0ejb0gfl","sub19","07","03","rl","test","75","img/o_c_dots.png","3","68","pattern,color,shape","151","0",""
"null","378130","HierDy0ejb0gfl","sub19","07","03","feedback","test","null","","","na","","151","",""
"913.3999999761581","379044","HierDy0ejb0gfl","sub19","07","03","rl","test","68","img/o_c_dots.png","3","68","pattern,color,shape","152","1",""
"null","380048","HierDy0ejb0gfl","sub19","07","03","feedback","test","null","","","na","","152","",""
"838.6000000238419","380888","HierDy0ejb0gfl","sub19","07","03","rl","test","76","img/o_s_stripes.png","8","76","pattern,color,shape","153","1",""
"null","381900","HierDy0ejb0gfl","sub19","07","03","feedback","test","null","","","na","","153","",""
"2111.900000035763","384013","HierDy0ejb0gfl","sub19","07","03","rl","test","75","img/o_c_stripes.png","7","75","pattern,color,shape","154","1",""
"null","385016","HierDy0ejb0gfl","sub19","07","03","feedback","test","null","","","na","","154","",""
"1292.1000000238419","386310","HierDy0ejb0gfl","sub19","07","03","rl","test","72","img/b_c_stripes.png","5","72","pattern,color,shape","155","1",""
"null","387316","HierDy0ejb0gfl","sub19","07","03","feedback","test","null","","","na","","155","",""
"1054.8999999761581","388371","HierDy0ejb0gfl","sub19","07","03","rl","test","65","img/b_c_dots.png","1","65","pattern,color,shape","156","1",""
"null","389380","HierDy0ejb0gfl","sub19","07","03","feedback","test","null","","","na","","156","",""
"1032.300000011921","390414","HierDy0ejb0gfl","sub19","07","03","rl","test","72","img/b_c_stripes.png","5","72","pattern,color,shape","157","1",""
"null","391416","HierDy0ejb0gfl","sub19","07","03","feedback","test","null","","","na","","157","",""
"1743.699999988079","393161","HierDy0ejb0gfl","sub19","07","03","rl","test","74","img/b_s_stripes.png","6","74","pattern,color,shape","158","1",""
"null","394169","HierDy0ejb0gfl","sub19","07","03","feedback","test","null","","","na","","158","",""
"1958.3999999761581","396128","HierDy0ejb0gfl","sub19","07","03","rl","test","83","img/b_s_dots.png","2","83","pattern,color,shape","159","1",""
"null","397141","HierDy0ejb0gfl","sub19","07","03","feedback","test","null","","","na","","159","",""
"1514.5","398656","HierDy0ejb0gfl","sub19","07","03","rl","test","70","img/o_s_dots.png","4","70","pattern,color,shape","160","1",""
"null","399664","HierDy0ejb0gfl","sub19","07","03","feedback","test","null","","","na","","160","",""
"642.6000000238419","400308","HierDy0ejb0gfl","sub19","07","03","rl","test","70","img/o_s_dots.png","4","70","pattern,color,shape","161","1",""
"null","401315","HierDy0ejb0gfl","sub19","07","03","feedback","test","null","","","na","","161","",""
"942.5999999642372","402258","HierDy0ejb0gfl","sub19","07","03","rl","test","83","img/b_s_dots.png","2","83","pattern,color,shape","162","1",""
"null","403265","HierDy0ejb0gfl","sub19","07","03","feedback","test","null","","","na","","162","",""
"1197.5","404463","HierDy0ejb0gfl","sub19","07","03","rl","test","72","img/b_c_stripes.png","5","72","pattern,color,shape","163","1",""
"null","405464","HierDy0ejb0gfl","sub19","07","03","feedback","test","null","","","na","","163","",""
"2041.7999999523163","407507","HierDy0ejb0gfl","sub19","07","03","rl","test","68","img/o_c_dots.png","3","68","pattern,color,shape","164","1",""
"null","408513","HierDy0ejb0gfl","sub19","07","03","feedback","test","null","","","na","","164","",""
"1533.300000011921","410047","HierDy0ejb0gfl","sub19","07","03","rl","test","74","img/b_s_stripes.png","6","74","pattern,color,shape","165","1",""
"null","411054","HierDy0ejb0gfl","sub19","07","03","feedback","test","null","","","na","","165","",""
"2299.699999988079","413354","HierDy0ejb0gfl","sub19","07","03","rl","test","65","img/b_c_dots.png","1","65","pattern,color,shape","166","1",""
"null","414361","HierDy0ejb0gfl","sub19","07","03","feedback","test","null","","","na","","166","",""
"538.8999999761581","414900","HierDy0ejb0gfl","sub19","07","03","rl","test","65","img/b_c_dots.png","1","65","pattern,color,shape","167","1",""
"null","415909","HierDy0ejb0gfl","sub19","07","03","feedback","test","null","","","na","","167","",""
"2250.899999976158","418161","HierDy0ejb0gfl","sub19","07","03","rl","test","75","img/o_s_stripes.png","8","76","pattern,color,shape","168","0",""
"null","419172","HierDy0ejb0gfl","sub19","07","03","feedback","test","null","","","na","","168","",""
"1159.6000000238419","420333","HierDy0ejb0gfl","sub19","07","03","rl","test","75","img/o_c_stripes.png","7","75","pattern,color,shape","169","1",""
"null","421336","HierDy0ejb0gfl","sub19","07","03","feedback","test","null","","","na","","169","",""
"740.1000000238419","422077","HierDy0ejb0gfl","sub19","07","03","rl","test","74","img/b_s_stripes.png","6","74","pattern,color,shape","170","1",""
"null","423081","HierDy0ejb0gfl","sub19","07","03","feedback","test","null","","","na","","170","",""
"1960.199999988079","425042","HierDy0ejb0gfl","sub19","07","03","rl","test","72","img/b_c_stripes.png","5","72","pattern,color,shape","171","1",""
"null","426052","HierDy0ejb0gfl","sub19","07","03","feedback","test","null","","","na","","171","",""
"1443.1000000238419","427495","HierDy0ejb0gfl","sub19","07","03","rl","test","76","img/o_s_stripes.png","8","76","pattern,color,shape","172","1",""
"null","428505","HierDy0ejb0gfl","sub19","07","03","feedback","test","null","","","na","","172","",""
"null","431009","HierDy0ejb0gfl","sub19","07","03","rl","test","null","img/o_c_dots.png","3","68","pattern,color,shape","173","0",""
"null","432018","HierDy0ejb0gfl","sub19","07","03","feedback","test","null","","","na","","173","",""
"790.1999999880791","432809","HierDy0ejb0gfl","sub19","07","03","rl","test","76","img/o_s_stripes.png","8","76","pattern,color,shape","174","1",""
"null","433820","HierDy0ejb0gfl","sub19","07","03","feedback","test","null","","","na","","174","",""
"1377.699999988079","435198","HierDy0ejb0gfl","sub19","07","03","rl","test","75","img/o_c_stripes.png","7","75","pattern,color,shape","175","1",""
"null","436200","HierDy0ejb0gfl","sub19","07","03","feedback","test","null","","","na","","175","",""
"1213.699999988079","437414","HierDy0ejb0gfl","sub19","07","03","rl","test","70","img/o_s_dots.png","4","70","pattern,color,shape","176","1",""
"null","438416","HierDy0ejb0gfl","sub19","07","03","feedback","test","null","","","na","","176","",""
"1891.800000011921","440309","HierDy0ejb0gfl","sub19","07","03","rl","test","83","img/b_s_dots.png","2","83","pattern,color,shape","177","1",""
"null","441317","HierDy0ejb0gfl","sub19","07","03","feedback","test","null","","","na","","177","",""
"1863","443181","HierDy0ejb0gfl","sub19","07","03","rl","test","75","img/o_c_stripes.png","7","75","pattern,color,shape","178","1",""
"null","444187","HierDy0ejb0gfl","sub19","07","03","feedback","test","null","","","na","","178","",""
"1099.0999999642372","445287","HierDy0ejb0gfl","sub19","07","03","rl","test","72","img/b_c_stripes.png","5","72","pattern,color,shape","179","1",""
"null","446300","HierDy0ejb0gfl","sub19","07","03","feedback","test","null","","","na","","179","",""
"2427.5","448728","HierDy0ejb0gfl","sub19","07","03","rl","test","83","img/o_c_dots.png","3","68","pattern,color,shape","180","0",""
"null","449737","HierDy0ejb0gfl","sub19","07","03","feedback","test","null","","","na","","180","",""
"null","452244","HierDy0ejb0gfl","sub19","07","03","rl","test","null","img/b_s_stripes.png","6","74","pattern,color,shape","181","0",""
"null","453253","HierDy0ejb0gfl","sub19","07","03","feedback","test","null","","","na","","181","",""
"706.0999999642372","453960","HierDy0ejb0gfl","sub19","07","03","rl","test","72","img/b_c_dots.png","1","65","pattern,color,shape","182","0",""
"null","454970","HierDy0ejb0gfl","sub19","07","03","feedback","test","null","","","na","","182","",""
"1505.1000000238419","456476","HierDy0ejb0gfl","sub19","07","03","rl","test","83","img/b_s_dots.png","2","83","pattern,color,shape","183","1",""
"null","457480","HierDy0ejb0gfl","sub19","07","03","feedback","test","null","","","na","","183","",""
"1100.4000000357628","458581","HierDy0ejb0gfl","sub19","07","03","rl","test","72","img/b_c_stripes.png","5","72","pattern,color,shape","184","1",""
"null","459588","HierDy0ejb0gfl","sub19","07","03","feedback","test","null","","","na","","184","",""
"1400.5","460989","HierDy0ejb0gfl","sub19","07","03","rl","test","70","img/o_s_dots.png","4","70","pattern,color,shape","185","1",""
"null","461995","HierDy0ejb0gfl","sub19","07","03","feedback","test","null","","","na","","185","",""
"2274.900000035763","464270","HierDy0ejb0gfl","sub19","07","03","rl","test","83","img/b_c_dots.png","1","65","pattern,color,shape","186","0",""
"null","465273","HierDy0ejb0gfl","sub19","07","03","feedback","test","null","","","na","","186","",""
"1223.6000000238419","466498","HierDy0ejb0gfl","sub19","07","03","rl","test","70","img/o_s_dots.png","4","70","pattern,color,shape","187","1",""
"null","467507","HierDy0ejb0gfl","sub19","07","03","feedback","test","null","","","na","","187","",""
"2101.5","469610","HierDy0ejb0gfl","sub19","07","03","rl","test","76","img/o_s_stripes.png","8","76","pattern,color,shape","188","1",""
"null","470620","HierDy0ejb0gfl","sub19","07","03","feedback","test","null","","","na","","188","",""
"2132.199999988079","472753","HierDy0ejb0gfl","sub19","07","03","rl","test","75","img/o_c_stripes.png","7","75","pattern,color,shape","189","1",""
"null","473765","HierDy0ejb0gfl","sub19","07","03","feedback","test","null","","","na","","189","",""
"2249.400000035763","476016","HierDy0ejb0gfl","sub19","07","03","rl","test","68","img/o_c_dots.png","3","68","pattern,color,shape","190","1",""
"null","477027","HierDy0ejb0gfl","sub19","07","03","feedback","test","null","","","na","","190","",""
"543.5999999642372","477571","HierDy0ejb0gfl","sub19","07","03","rl","test","68","img/o_c_dots.png","3","68","pattern,color,shape","191","1",""
"null","478578","HierDy0ejb0gfl","sub19","07","03","feedback","test","null","","","na","","191","",""
"1275","479853","HierDy0ejb0gfl","sub19","07","03","rl","test","74","img/b_s_stripes.png","6","74","pattern,color,shape","192","1",""
"null","480857","HierDy0ejb0gfl","sub19","07","03","feedback","test","null","","","na","","192","",""
"1402.3999999761581","482260","HierDy0ejb0gfl","sub19","07","03","rl","test","83","img/b_s_dots.png","2","83","pattern,color,shape","193","1",""
"null","483265","HierDy0ejb0gfl","sub19","07","03","feedback","test","null","","","na","","193","",""
"1174.0999999642372","484440","HierDy0ejb0gfl","sub19","07","03","rl","test","65","img/b_c_dots.png","1","65","pattern,color,shape","194","1",""
"null","485453","HierDy0ejb0gfl","sub19","07","03","feedback","test","null","","","na","","194","",""
"2031","487485","HierDy0ejb0gfl","sub19","07","03","rl","test","75","img/b_s_stripes.png","6","74","pattern,color,shape","195","0",""
"null","488491","HierDy0ejb0gfl","sub19","07","03","feedback","test","null","","","na","","195","",""
"985.8999999761581","489477","HierDy0ejb0gfl","sub19","07","03","rl","test","72","img/b_c_stripes.png","5","72","pattern,color,shape","196","1",""
"null","490484","HierDy0ejb0gfl","sub19","07","03","feedback","test","null","","","na","","196","",""
"1232","491717","HierDy0ejb0gfl","sub19","07","03","rl","test","70","img/o_s_dots.png","4","70","pattern,color,shape","197","1",""
"null","492721","HierDy0ejb0gfl","sub19","07","03","feedback","test","null","","","na","","197","",""
"1427.800000011921","494149","HierDy0ejb0gfl","sub19","07","03","rl","test","83","img/b_s_dots.png","2","83","pattern,color,shape","198","1",""
"null","495155","HierDy0ejb0gfl","sub19","07","03","feedback","test","null","","","na","","198","",""
"930.5","496086","HierDy0ejb0gfl","sub19","07","03","rl","test","76","img/o_s_stripes.png","8","76","pattern,color,shape","199","1",""
"null","497089","HierDy0ejb0gfl","sub19","07","03","feedback","test","null","","","na","","199","",""
"951.1999999880791","498041","HierDy0ejb0gfl","sub19","07","03","rl","test","72","img/b_c_dots.png","1","65","pattern,color,shape","200","0",""
"null","499049","HierDy0ejb0gfl","sub19","07","03","feedback","test","null","","","na","","200","",""
"2330.2999999523163","501381","HierDy0ejb0gfl","sub19","07","03","rl","test","75","img/o_c_stripes.png","7","75","pattern,color,shape","201","1",""
"null","502385","HierDy0ejb0gfl","sub19","07","03","feedback","test","null","","","na","","201","",""
"631.0999999642372","503017","HierDy0ejb0gfl","sub19","07","03","rl","test","75","img/o_c_stripes.png","7","75","pattern,color,shape","202","1",""
"null","504025","HierDy0ejb0gfl","sub19","07","03","feedback","test","null","","","na","","202","",""
"673.6999999880791","504700","HierDy0ejb0gfl","sub19","07","03","rl","test","76","img/o_s_stripes.png","8","76","pattern,color,shape","203","1",""
"null","505705","HierDy0ejb0gfl","sub19","07","03","feedback","test","null","","","na","","203","",""
"1742.3999999761581","507448","HierDy0ejb0gfl","sub19","07","03","rl","test","68","img/o_c_dots.png","3","68","pattern,color,shape","204","1",""
"null","508458","HierDy0ejb0gfl","sub19","07","03","feedback","test","null","","","na","","204","",""
"646.5999999642372","509106","HierDy0ejb0gfl","sub19","07","03","rl","test","72","img/b_c_stripes.png","5","72","pattern,color,shape","205","1",""
"null","510118","HierDy0ejb0gfl","sub19","07","03","feedback","test","null","","","na","","205","",""
"2378.699999988079","512497","HierDy0ejb0gfl","sub19","07","03","rl","test","83","img/b_s_dots.png","2","83","pattern,color,shape","206","1",""
"null","513508","HierDy0ejb0gfl","sub19","07","03","feedback","test","null","","","na","","206","",""
"2116","515625","HierDy0ejb0gfl","sub19","07","03","rl","test","72","img/b_c_stripes.png","5","72","pattern,color,shape","207","1",""
"null","516635","HierDy0ejb0gfl","sub19","07","03","feedback","test","null","","","na","","207","",""
"1234.699999988079","517871","HierDy0ejb0gfl","sub19","07","03","rl","test","74","img/b_s_stripes.png","6","74","pattern,color,shape","208","1",""
"null","518877","HierDy0ejb0gfl","sub19","07","03","feedback","test","null","","","na","","208","",""
"1065.5","519944","HierDy0ejb0gfl","sub19","07","03","rl","test","75","img/o_c_stripes.png","7","75","pattern,color,shape","209","1",""
"null","520954","HierDy0ejb0gfl","sub19","07","03","feedback","test","null","","","na","","209","",""
"609","521564","HierDy0ejb0gfl","sub19","07","03","rl","test","76","img/o_s_dots.png","4","70","pattern,color,shape","210","0",""
"null","522570","HierDy0ejb0gfl","sub19","07","03","feedback","test","null","","","na","","210","",""
"null","525077","HierDy0ejb0gfl","sub19","07","03","rl","test","null","img/b_s_stripes.png","6","74","pattern,color,shape","211","0",""
"null","526085","HierDy0ejb0gfl","sub19","07","03","feedback","test","null","","","na","","211","",""
"1174.5","527260","HierDy0ejb0gfl","sub19","07","03","rl","test","76","img/o_s_stripes.png","8","76","pattern,color,shape","212","1",""
"null","528266","HierDy0ejb0gfl","sub19","07","03","feedback","test","null","","","na","","212","",""
"1487.0999999642372","529754","HierDy0ejb0gfl","sub19","07","03","rl","test","83","img/o_s_dots.png","4","70","pattern,color,shape","213","0",""
"null","530758","HierDy0ejb0gfl","sub19","07","03","feedback","test","null","","","na","","213","",""
"1165.1000000238419","531924","HierDy0ejb0gfl","sub19","07","03","rl","test","65","img/b_c_dots.png","1","65","pattern,color,shape","214","1",""
"null","532934","HierDy0ejb0gfl","sub19","07","03","feedback","test","null","","","na","","214","",""
"1303.2999999523163","534238","HierDy0ejb0gfl","sub19","07","03","rl","test","70","img/o_s_dots.png","4","70","pattern,color,shape","215","1",""
"null","535246","HierDy0ejb0gfl","sub19","07","03","feedback","test","null","","","na","","215","",""
"1457.699999988079","536704","HierDy0ejb0gfl","sub19","07","03","rl","test","68","img/o_c_dots.png","3","68","pattern,color,shape","216","1",""
"null","537716","HierDy0ejb0gfl","sub19","07","03","feedback","test","null","","","na","","216","",""
"552.9000000357628","538269","HierDy0ejb0gfl","sub19","07","03","rl","test","68","img/o_c_dots.png","3","68","pattern,color,shape","217","1",""
"null","539279","HierDy0ejb0gfl","sub19","07","03","feedback","test","null","","","na","","217","",""
"777.1999999880791","540057","HierDy0ejb0gfl","sub19","07","03","rl","test","65","img/b_c_dots.png","1","65","pattern,color,shape","218","1",""
"null","541066","HierDy0ejb0gfl","sub19","07","03","feedback","test","null","","","na","","218","",""
"2341.300000011921","543408","HierDy0ejb0gfl","sub19","07","03","rl","test","83","img/b_s_dots.png","2","83","pattern,color,shape","219","1",""
"null","544413","HierDy0ejb0gfl","sub19","07","03","feedback","test","null","","","na","","219","",""
"975.6999999880791","545389","HierDy0ejb0gfl","sub19","07","03","rl","test","83","img/b_s_dots.png","2","83","pattern,color,shape","220","1",""
"null","546396","HierDy0ejb0gfl","sub19","07","03","feedback","test","null","","","na","","220","",""
"2412","548809","HierDy0ejb0gfl","sub19","07","03","rl","test","74","img/b_c_stripes.png","5","72","pattern,color,shape","221","0",""
"null","549818","HierDy0ejb0gfl","sub19","07","03","feedback","test","null","","","na","","221","",""
"1257.800000011921","551076","HierDy0ejb0gfl","sub19","07","03","rl","test","76","img/o_s_stripes.png","8","76","pattern,color,shape","222","1",""
"null","552083","HierDy0ejb0gfl","sub19","07","03","feedback","test","null","","","na","","222","",""
"1063.199999988079","553147","HierDy0ejb0gfl","sub19","07","03","rl","test","75","img/o_c_stripes.png","7","75","pattern,color,shape","223","1",""
"null","554156","HierDy0ejb0gfl","sub19","07","03","feedback","test","null","","","na","","223","",""
"1197.800000011921","555355","HierDy0ejb0gfl","sub19","07","03","rl","test","65","img/b_c_dots.png","1","65","pattern,color,shape","224","1",""
"null","556363","HierDy0ejb0gfl","sub19","07","03","feedback","test","null","","","na","","224","",""
"1186.4000000357628","557551","HierDy0ejb0gfl","sub19","07","03","rl","test","83","img/b_s_dots.png","2","83","pattern,color,shape","225","1",""
"null","558557","HierDy0ejb0gfl","sub19","07","03","feedback","test","null","","","na","","225","",""
"823","559381","HierDy0ejb0gfl","sub19","07","03","rl","test","83","img/b_s_stripes.png","6","74","pattern,color,shape","226","0",""
"null","560386","HierDy0ejb0gfl","sub19","07","03","feedback","test","null","","","na","","226","",""
"1424.6000000238419","561812","HierDy0ejb0gfl","sub19","07","03","rl","test","72","img/b_c_stripes.png","5","72","pattern,color,shape","227","1",""
"null","562821","HierDy0ejb0gfl","sub19","07","03","feedback","test","null","","","na","","227","",""
"625.1000000238419","563447","HierDy0ejb0gfl","sub19","07","03","rl","test","74","img/b_s_stripes.png","6","74","pattern,color,shape","228","1",""
"null","564455","HierDy0ejb0gfl","sub19","07","03","feedback","test","null","","","na","","228","",""
"967.3000000119209","565423","HierDy0ejb0gfl","sub19","07","03","rl","test","76","img/o_s_stripes.png","8","76","pattern,color,shape","229","1",""
"null","566427","HierDy0ejb0gfl","sub19","07","03","feedback","test","null","","","na","","229","",""
"1327.4000000357628","567755","HierDy0ejb0gfl","sub19","07","03","rl","test","70","img/o_s_dots.png","4","70","pattern,color,shape","230","1",""
"null","568766","HierDy0ejb0gfl","sub19","07","03","feedback","test","null","","","na","","230","",""
"null","571279","HierDy0ejb0gfl","sub19","07","03","rl","test","null","img/o_c_stripes.png","7","75","pattern,color,shape","231","0",""
"null","572285","HierDy0ejb0gfl","sub19","07","03","feedback","test","null","","","na","","231","",""
"2154.100000023842","574440","HierDy0ejb0gfl","sub19","07","03","rl","test","68","img/o_c_dots.png","3","68","pattern,color,shape","232","1",""
"null","575447","HierDy0ejb0gfl","sub19","07","03","feedback","test","null","","","na","","232","",""
"862.3000000119209","576310","HierDy0ejb0gfl","sub19","07","03","rl","test","70","img/o_s_dots.png","4","70","pattern,color,shape","233","1",""
"null","577314","HierDy0ejb0gfl","sub19","07","03","feedback","test","null","","","na","","233","",""
"1869.5999999642372","579185","HierDy0ejb0gfl","sub19","07","03","rl","test","83","img/b_s_dots.png","2","83","pattern,color,shape","234","1",""
"null","580190","HierDy0ejb0gfl","sub19","07","03","feedback","test","null","","","na","","234","",""
"1495.699999988079","581687","HierDy0ejb0gfl","sub19","07","03","rl","test","75","img/o_c_stripes.png","7","75","pattern,color,shape","235","1",""
"null","582693","HierDy0ejb0gfl","sub19","07","03","feedback","test","null","","","na","","235","",""
"1069.300000011921","583764","HierDy0ejb0gfl","sub19","07","03","rl","test","76","img/o_s_stripes.png","8","76","pattern,color,shape","236","1",""
"null","584771","HierDy0ejb0gfl","sub19","07","03","feedback","test","null","","","na","","236","",""
"null","587279","HierDy0ejb0gfl","sub19","07","03","rl","test","null","img/o_c_dots.png","3","68","pattern,color,shape","237","0",""
"null","588285","HierDy0ejb0gfl","sub19","07","03","feedback","test","null","","","na","","237","",""
"1200.199999988079","589486","HierDy0ejb0gfl","sub19","07","03","rl","test","72","img/b_c_stripes.png","5","72","pattern,color,shape","238","1",""
"null","590493","HierDy0ejb0gfl","sub19","07","03","feedback","test","null","","","na","","238","",""
"748.1000000238419","591242","HierDy0ejb0gfl","sub19","07","03","rl","test","72","img/b_c_dots.png","1","65","pattern,color,shape","239","0",""
"null","592254","HierDy0ejb0gfl","sub19","07","03","feedback","test","null","","","na","","239","",""
"1965.699999988079","594221","HierDy0ejb0gfl","sub19","07","03","rl","test","83","img/b_s_stripes.png","6","74","pattern,color,shape","240","0",""
"null","595231","HierDy0ejb0gfl","sub19","07","03","feedback","test","null","","","na","","240","",""
"null","597741","HierDy0ejb0gfl","sub19","07","03","rl","test","null","img/b_c_stripes.png","5","72","pattern,color,shape","241","0",""
"null","598749","HierDy0ejb0gfl","sub19","07","03","feedback","test","null","","","na","","241","",""
"2173.899999976158","600924","HierDy0ejb0gfl","sub19","07","03","rl","test","74","img/o_c_stripes.png","7","75","pattern,color,shape","242","0",""
"null","601931","HierDy0ejb0gfl","sub19","07","03","feedback","test","null","","","na","","242","",""
"null","604434","HierDy0ejb0gfl","sub19","07","03","rl","test","null","img/b_s_dots.png","2","83","pattern,color,shape","243","0",""
"null","605447","HierDy0ejb0gfl","sub19","07","03","feedback","test","null","","","na","","243","",""
"920.5","606369","HierDy0ejb0gfl","sub19","07","03","rl","test","65","img/b_c_dots.png","1","65","pattern,color,shape","244","1",""
"null","607370","HierDy0ejb0gfl","sub19","07","03","feedback","test","null","","","na","","244","",""
"2072.100000023842","609443","HierDy0ejb0gfl","sub19","07","03","rl","test","70","img/o_s_dots.png","4","70","pattern,color,shape","245","1",""
"null","610451","HierDy0ejb0gfl","sub19","07","03","feedback","test","null","","","na","","245","",""
"849.6000000238419","611301","HierDy0ejb0gfl","sub19","07","03","rl","test","76","img/o_s_stripes.png","8","76","pattern,color,shape","246","1",""
"null","612309","HierDy0ejb0gfl","sub19","07","03","feedback","test","null","","","na","","246","",""
"2205.399999976158","614515","HierDy0ejb0gfl","sub19","07","03","rl","test","68","img/b_s_dots.png","2","83","pattern,color,shape","247","0",""
"null","615523","HierDy0ejb0gfl","sub19","07","03","feedback","test","null","","","na","","247","",""
"1882","617406","HierDy0ejb0gfl","sub19","07","03","rl","test","74","img/b_s_stripes.png","6","74","pattern,color,shape","248","1",""
"null","618413","HierDy0ejb0gfl","sub19","07","03","feedback","test","null","","","na","","248","",""
"6693.5","625127","HierDy0ejb0gfl","sub19","07","03","","","","","","","","","","{""Q0"":""5""}"
"19429.5","644559","HierDy0ejb0gfl","sub19","07","03","","","","","","","","","","{""Q0"":""grouping stripes to my right hand and dots to my left hand""}"
"1077.7000000476837","645640","HierDy0ejb0gfl","sub19","07","03","","","","","","","","","",""
