"rt","time_elapsed","subject","subID","group","day","trialType","phase","key_press","stim","stimNum","corrresp","hierarchy","trialNum","corr","responses"
"1740.800000011921","1743","HierDyphlhfcht","sub26","02","03","","","","","","","","","",""
"","3428","HierDyphlhfcht","sub26","02","03","fullscreen","","","","","","","","",""
"11093","14523","HierDyphlhfcht","sub26","02","03","","prac","","","","","","","",""
"9291.59999999404","23818","HierDyphlhfcht","sub26","02","03","","","32","","","","","","",""
"2635.2999999970198","26454","HierDyphlhfcht","sub26","02","03","","prac","","","","","","","",""
"1086.8999999910593","27545","HierDyphlhfcht","sub26","02","03","rl","test","70","img/p_d_diag.png","4","70","color,shape,pattern","1","1",""
"null","28557","HierDyphlhfcht","sub26","02","03","feedback","test","null","","","na","","1","",""
"1847.9000000059605","30408","HierDyphlhfcht","sub26","02","03","rl","test","76","img/o_t_diag.png","6","74","color,shape,pattern","2","0",""
"null","31421","HierDyphlhfcht","sub26","02","03","feedback","test","null","","","na","","2","",""
"1094.7000000029802","32518","HierDyphlhfcht","sub26","02","03","rl","test","75","img/o_t_check.png","5","72","color,shape,pattern","3","0",""
"null","33521","HierDyphlhfcht","sub26","02","03","feedback","test","null","","","na","","3","",""
"1409.0999999940395","34933","HierDyphlhfcht","sub26","02","03","rl","test","70","img/p_t_diag.png","2","83","color,shape,pattern","4","0",""
"null","35937","HierDyphlhfcht","sub26","02","03","feedback","test","null","","","na","","4","",""
"810.9000000059605","36750","HierDyphlhfcht","sub26","02","03","rl","test","65","img/p_t_check.png","1","65","color,shape,pattern","5","1",""
"null","37765","HierDyphlhfcht","sub26","02","03","feedback","test","null","","","na","","5","",""
"924.3999999910593","38691","HierDyphlhfcht","sub26","02","03","rl","test","75","img/o_d_check.png","7","75","color,shape,pattern","6","1",""
"null","39701","HierDyphlhfcht","sub26","02","03","feedback","test","null","","","na","","6","",""
"1035.7000000029802","40738","HierDyphlhfcht","sub26","02","03","rl","test","70","img/p_t_diag.png","2","83","color,shape,pattern","7","0",""
"null","41749","HierDyphlhfcht","sub26","02","03","feedback","test","null","","","na","","7","",""
"1424.8999999910593","43175","HierDyphlhfcht","sub26","02","03","rl","test","65","img/p_d_check.png","3","68","color,shape,pattern","8","0",""
"null","44189","HierDyphlhfcht","sub26","02","03","feedback","test","null","","","na","","8","",""
"1511.7999999970198","45702","HierDyphlhfcht","sub26","02","03","rl","test","76","img/o_d_diag.png","8","76","color,shape,pattern","9","1",""
"null","46717","HierDyphlhfcht","sub26","02","03","feedback","test","null","","","na","","9","",""
"544.3999999910593","47263","HierDyphlhfcht","sub26","02","03","rl","test","76","img/o_d_diag.png","8","76","color,shape,pattern","10","1",""
"null","48277","HierDyphlhfcht","sub26","02","03","feedback","test","null","","","na","","10","",""
"789.6000000089407","49068","HierDyphlhfcht","sub26","02","03","rl","test","72","img/o_t_check.png","5","72","color,shape,pattern","11","1",""
"null","50077","HierDyphlhfcht","sub26","02","03","feedback","test","null","","","na","","11","",""
"1048.1000000089407","51126","HierDyphlhfcht","sub26","02","03","rl","test","70","img/p_d_diag.png","4","70","color,shape,pattern","12","1",""
"null","52137","HierDyphlhfcht","sub26","02","03","feedback","test","null","","","na","","12","",""
"1613.4000000059605","53752","HierDyphlhfcht","sub26","02","03","rl","test","83","img/p_d_check.png","3","68","color,shape,pattern","13","0",""
"null","54760","HierDyphlhfcht","sub26","02","03","feedback","test","null","","","na","","13","",""
"1805","56566","HierDyphlhfcht","sub26","02","03","rl","test","74","img/o_d_check.png","7","75","color,shape,pattern","14","0",""
"null","57577","HierDyphlhfcht","sub26","02","03","feedback","test","null","","","na","","14","",""
"2273.7999999970198","59853","HierDyphlhfcht","sub26","02","03","rl","test","75","img/o_t_diag.png","6","74","color,shape,pattern","15","0",""
"null","60857","HierDyphlhfcht","sub26","02","03","feedback","test","null","","","na","","15","",""
"956","61815","HierDyphlhfcht","sub26","02","03","rl","test","65","img/p_t_check.png","1","65","color,shape,pattern","16","1",""
"null","62829","HierDyphlhfcht","sub26","02","03","feedback","test","null","","","na","","16","",""
"2121.0999999940395","64952","HierDyphlhfcht","sub26","02","03","rl","test","74","img/o_t_diag.png","6","74","color,shape,pattern","17","1",""
"null","65962","HierDyphlhfcht","sub26","02","03","feedback","test","null","","","na","","17","",""
"894.5","66859","HierDyphlhfcht","sub26","02","03","rl","test","70","img/p_d_diag.png","4","70","color,shape,pattern","18","1",""
"null","67867","HierDyphlhfcht","sub26","02","03","feedback","test","null","","","na","","18","",""
"1106.2999999970198","68976","HierDyphlhfcht","sub26","02","03","rl","test","83","img/p_t_diag.png","2","83","color,shape,pattern","19","1",""
"null","69989","HierDyphlhfcht","sub26","02","03","feedback","test","null","","","na","","19","",""
"985.7000000029802","70977","HierDyphlhfcht","sub26","02","03","rl","test","68","img/p_t_check.png","1","65","color,shape,pattern","20","0",""
"null","71984","HierDyphlhfcht","sub26","02","03","feedback","test","null","","","na","","20","",""
"2032.7000000029802","74019","HierDyphlhfcht","sub26","02","03","rl","test","75","img/o_t_check.png","5","72","color,shape,pattern","21","0",""
"null","75025","HierDyphlhfcht","sub26","02","03","feedback","test","null","","","na","","21","",""
"1914.0999999940395","76941","HierDyphlhfcht","sub26","02","03","rl","test","68","img/p_d_check.png","3","68","color,shape,pattern","22","1",""
"null","77949","HierDyphlhfcht","sub26","02","03","feedback","test","null","","","na","","22","",""
"1567.3999999910593","79518","HierDyphlhfcht","sub26","02","03","rl","test","72","img/o_d_check.png","7","75","color,shape,pattern","23","0",""
"null","80525","HierDyphlhfcht","sub26","02","03","feedback","test","null","","","na","","23","",""
"1617.3999999910593","82144","HierDyphlhfcht","sub26","02","03","rl","test","76","img/o_d_diag.png","8","76","color,shape,pattern","24","1",""
"null","83153","HierDyphlhfcht","sub26","02","03","feedback","test","null","","","na","","24","",""
"685.0999999940395","83840","HierDyphlhfcht","sub26","02","03","rl","test","76","img/o_d_diag.png","8","76","color,shape,pattern","25","1",""
"null","84850","HierDyphlhfcht","sub26","02","03","feedback","test","null","","","na","","25","",""
"1127.0999999940395","85979","HierDyphlhfcht","sub26","02","03","rl","test","70","img/p_t_diag.png","2","83","color,shape,pattern","26","0",""
"null","86985","HierDyphlhfcht","sub26","02","03","feedback","test","null","","","na","","26","",""
"843.7999999970198","87830","HierDyphlhfcht","sub26","02","03","rl","test","76","img/o_d_diag.png","8","76","color,shape,pattern","27","1",""
"null","88845","HierDyphlhfcht","sub26","02","03","feedback","test","null","","","na","","27","",""
"1513","90360","HierDyphlhfcht","sub26","02","03","rl","test","68","img/p_d_check.png","3","68","color,shape,pattern","28","1",""
"null","91373","HierDyphlhfcht","sub26","02","03","feedback","test","null","","","na","","28","",""
"456.79999999701977","91832","HierDyphlhfcht","sub26","02","03","rl","test","70","img/p_d_diag.png","4","70","color,shape,pattern","29","1",""
"null","92845","HierDyphlhfcht","sub26","02","03","feedback","test","null","","","na","","29","",""
"1139.5","93986","HierDyphlhfcht","sub26","02","03","rl","test","75","img/o_d_check.png","7","75","color,shape,pattern","30","1",""
"null","94993","HierDyphlhfcht","sub26","02","03","feedback","test","null","","","na","","30","",""
"1424.3999999910593","96419","HierDyphlhfcht","sub26","02","03","rl","test","72","img/o_t_diag.png","6","74","color,shape,pattern","31","0",""
"null","97429","HierDyphlhfcht","sub26","02","03","feedback","test","null","","","na","","31","",""
"788.3999999910593","98219","HierDyphlhfcht","sub26","02","03","rl","test","65","img/p_t_check.png","1","65","color,shape,pattern","32","1",""
"null","99229","HierDyphlhfcht","sub26","02","03","feedback","test","null","","","na","","32","",""
"1370.5","100601","HierDyphlhfcht","sub26","02","03","rl","test","75","img/o_d_check.png","7","75","color,shape,pattern","33","1",""
"null","101609","HierDyphlhfcht","sub26","02","03","feedback","test","null","","","na","","33","",""
"2098.2000000029802","103709","HierDyphlhfcht","sub26","02","03","rl","test","74","img/o_t_check.png","5","72","color,shape,pattern","34","0",""
"null","104717","HierDyphlhfcht","sub26","02","03","feedback","test","null","","","na","","34","",""
"712.5","105431","HierDyphlhfcht","sub26","02","03","rl","test","65","img/p_t_check.png","1","65","color,shape,pattern","35","1",""
"null","106441","HierDyphlhfcht","sub26","02","03","feedback","test","null","","","na","","35","",""
"677.9000000059605","107121","HierDyphlhfcht","sub26","02","03","rl","test","76","img/o_t_diag.png","6","74","color,shape,pattern","36","0",""
"null","108132","HierDyphlhfcht","sub26","02","03","feedback","test","null","","","na","","36","",""
"785.0999999940395","108919","HierDyphlhfcht","sub26","02","03","rl","test","70","img/p_d_diag.png","4","70","color,shape,pattern","37","1",""
"null","109933","HierDyphlhfcht","sub26","02","03","feedback","test","null","","","na","","37","",""
"568.9000000059605","110504","HierDyphlhfcht","sub26","02","03","rl","test","72","img/o_t_check.png","5","72","color,shape,pattern","38","1",""
"null","111517","HierDyphlhfcht","sub26","02","03","feedback","test","null","","","na","","38","",""
"626","112145","HierDyphlhfcht","sub26","02","03","rl","test","70","img/p_d_diag.png","4","70","color,shape,pattern","39","1",""
"null","113153","HierDyphlhfcht","sub26","02","03","feedback","test","null","","","na","","39","",""
"1767","114922","HierDyphlhfcht","sub26","02","03","rl","test","68","img/p_t_diag.png","2","83","color,shape,pattern","40","0",""
"null","115924","HierDyphlhfcht","sub26","02","03","feedback","test","null","","","na","","40","",""
"1131","117057","HierDyphlhfcht","sub26","02","03","rl","test","68","img/p_d_check.png","3","68","color,shape,pattern","41","1",""
"null","118069","HierDyphlhfcht","sub26","02","03","feedback","test","null","","","na","","41","",""
"802.8999999910593","118874","HierDyphlhfcht","sub26","02","03","rl","test","76","img/o_d_diag.png","8","76","color,shape,pattern","42","1",""
"null","119882","HierDyphlhfcht","sub26","02","03","feedback","test","null","","","na","","42","",""
"1940","121825","HierDyphlhfcht","sub26","02","03","rl","test","75","img/o_d_check.png","7","75","color,shape,pattern","43","1",""
"null","122837","HierDyphlhfcht","sub26","02","03","feedback","test","null","","","na","","43","",""
"1633.4000000059605","124472","HierDyphlhfcht","sub26","02","03","rl","test","76","img/o_t_diag.png","6","74","color,shape,pattern","44","0",""
"null","125481","HierDyphlhfcht","sub26","02","03","feedback","test","null","","","na","","44","",""
"795.4000000059605","126278","HierDyphlhfcht","sub26","02","03","rl","test","65","img/p_t_check.png","1","65","color,shape,pattern","45","1",""
"null","127290","HierDyphlhfcht","sub26","02","03","feedback","test","null","","","na","","45","",""
"652.2999999970198","127945","HierDyphlhfcht","sub26","02","03","rl","test","65","img/p_t_check.png","1","65","color,shape,pattern","46","1",""
"null","128957","HierDyphlhfcht","sub26","02","03","feedback","test","null","","","na","","46","",""
"908","129867","HierDyphlhfcht","sub26","02","03","rl","test","72","img/o_t_check.png","5","72","color,shape,pattern","47","1",""
"null","130876","HierDyphlhfcht","sub26","02","03","feedback","test","null","","","na","","47","",""
"998.3999999910593","131877","HierDyphlhfcht","sub26","02","03","rl","test","68","img/p_d_check.png","3","68","color,shape,pattern","48","1",""
"null","132885","HierDyphlhfcht","sub26","02","03","feedback","test","null","","","na","","48","",""
"1065.699999988079","133953","HierDyphlhfcht","sub26","02","03","rl","test","83","img/p_t_diag.png","2","83","color,shape,pattern","49","1",""
"null","134961","HierDyphlhfcht","sub26","02","03","feedback","test","null","","","na","","49","",""
"1156","136118","HierDyphlhfcht","sub26","02","03","rl","test","68","img/p_d_check.png","3","68","color,shape,pattern","50","1",""
"null","137130","HierDyphlhfcht","sub26","02","03","feedback","test","null","","","na","","50","",""
"817.7999999970198","137950","HierDyphlhfcht","sub26","02","03","rl","test","72","img/o_t_check.png","5","72","color,shape,pattern","51","1",""
"null","138961","HierDyphlhfcht","sub26","02","03","feedback","test","null","","","na","","51","",""
"797","139759","HierDyphlhfcht","sub26","02","03","rl","test","83","img/p_t_diag.png","2","83","color,shape,pattern","52","1",""
"null","140773","HierDyphlhfcht","sub26","02","03","feedback","test","null","","","na","","52","",""
"952","141726","HierDyphlhfcht","sub26","02","03","rl","test","70","img/p_d_diag.png","4","70","color,shape,pattern","53","1",""
"null","142737","HierDyphlhfcht","sub26","02","03","feedback","test","null","","","na","","53","",""
"1110.7999999970198","143850","HierDyphlhfcht","sub26","02","03","rl","test","76","img/o_d_diag.png","8","76","color,shape,pattern","54","1",""
"null","144857","HierDyphlhfcht","sub26","02","03","feedback","test","null","","","na","","54","",""
"1348.7000000029802","146207","HierDyphlhfcht","sub26","02","03","rl","test","75","img/o_t_diag.png","6","74","color,shape,pattern","55","0",""
"null","147221","HierDyphlhfcht","sub26","02","03","feedback","test","null","","","na","","55","",""
"897.0999999940395","148120","HierDyphlhfcht","sub26","02","03","rl","test","72","img/o_t_diag.png","6","74","color,shape,pattern","56","0",""
"null","149130","HierDyphlhfcht","sub26","02","03","feedback","test","null","","","na","","56","",""
"2213","151345","HierDyphlhfcht","sub26","02","03","rl","test","83","img/p_t_diag.png","2","83","color,shape,pattern","57","1",""
"null","152357","HierDyphlhfcht","sub26","02","03","feedback","test","null","","","na","","57","",""
"1315.9000000059605","153674","HierDyphlhfcht","sub26","02","03","rl","test","75","img/o_d_check.png","7","75","color,shape,pattern","58","1",""
"null","154685","HierDyphlhfcht","sub26","02","03","feedback","test","null","","","na","","58","",""
"783.7999999970198","155470","HierDyphlhfcht","sub26","02","03","rl","test","70","img/p_d_diag.png","4","70","color,shape,pattern","59","1",""
"null","156483","HierDyphlhfcht","sub26","02","03","feedback","test","null","","","na","","59","",""
"1065.2999999970198","157550","HierDyphlhfcht","sub26","02","03","rl","test","68","img/p_d_check.png","3","68","color,shape,pattern","60","1",""
"null","158565","HierDyphlhfcht","sub26","02","03","feedback","test","null","","","na","","60","",""
"739.7999999970198","159306","HierDyphlhfcht","sub26","02","03","rl","test","65","img/p_t_check.png","1","65","color,shape,pattern","61","1",""
"null","160317","HierDyphlhfcht","sub26","02","03","feedback","test","null","","","na","","61","",""
"2509.5999999940395","162828","HierDyphlhfcht","sub26","02","03","rl","test","76","img/o_d_diag.png","8","76","color,shape,pattern","62","1",""
"null","163837","HierDyphlhfcht","sub26","02","03","feedback","test","null","","","na","","62","",""
"645.5999999940395","164484","HierDyphlhfcht","sub26","02","03","rl","test","65","img/p_t_check.png","1","65","color,shape,pattern","63","1",""
"null","165491","HierDyphlhfcht","sub26","02","03","feedback","test","null","","","na","","63","",""
"1221.1000000089407","166715","HierDyphlhfcht","sub26","02","03","rl","test","72","img/o_t_check.png","5","72","color,shape,pattern","64","1",""
"null","167722","HierDyphlhfcht","sub26","02","03","feedback","test","null","","","na","","64","",""
"843.7999999970198","168568","HierDyphlhfcht","sub26","02","03","rl","test","75","img/o_d_check.png","7","75","color,shape,pattern","65","1",""
"null","169581","HierDyphlhfcht","sub26","02","03","feedback","test","null","","","na","","65","",""
"883.8999999910593","170466","HierDyphlhfcht","sub26","02","03","rl","test","68","img/p_d_check.png","3","68","color,shape,pattern","66","1",""
"null","171477","HierDyphlhfcht","sub26","02","03","feedback","test","null","","","na","","66","",""
"756.2999999970198","172235","HierDyphlhfcht","sub26","02","03","rl","test","72","img/o_t_check.png","5","72","color,shape,pattern","67","1",""
"null","173245","HierDyphlhfcht","sub26","02","03","feedback","test","null","","","na","","67","",""
"1140.2000000029802","174387","HierDyphlhfcht","sub26","02","03","rl","test","83","img/p_t_diag.png","2","83","color,shape,pattern","68","1",""
"null","175397","HierDyphlhfcht","sub26","02","03","feedback","test","null","","","na","","68","",""
"1524.199999988079","176923","HierDyphlhfcht","sub26","02","03","rl","test","75","img/o_d_check.png","7","75","color,shape,pattern","69","1",""
"null","177933","HierDyphlhfcht","sub26","02","03","feedback","test","null","","","na","","69","",""
"600.8000000119209","178535","HierDyphlhfcht","sub26","02","03","rl","test","74","img/o_t_diag.png","6","74","color,shape,pattern","70","1",""
"null","179544","HierDyphlhfcht","sub26","02","03","feedback","test","null","","","na","","70","",""
"757.6000000089407","180303","HierDyphlhfcht","sub26","02","03","rl","test","70","img/p_d_diag.png","4","70","color,shape,pattern","71","1",""
"null","181313","HierDyphlhfcht","sub26","02","03","feedback","test","null","","","na","","71","",""
"591.1999999880791","181906","HierDyphlhfcht","sub26","02","03","rl","test","72","img/o_t_check.png","5","72","color,shape,pattern","72","1",""
"null","182917","HierDyphlhfcht","sub26","02","03","feedback","test","null","","","na","","72","",""
"2240.7000000029802","185159","HierDyphlhfcht","sub26","02","03","rl","test","75","img/o_d_diag.png","8","76","color,shape,pattern","73","0",""
"null","186169","HierDyphlhfcht","sub26","02","03","feedback","test","null","","","na","","73","",""
"1229.5","187400","HierDyphlhfcht","sub26","02","03","rl","test","76","img/o_d_diag.png","8","76","color,shape,pattern","74","1",""
"null","188408","HierDyphlhfcht","sub26","02","03","feedback","test","null","","","na","","74","",""
"852","189262","HierDyphlhfcht","sub26","02","03","rl","test","70","img/p_d_diag.png","4","70","color,shape,pattern","75","1",""
"null","190275","HierDyphlhfcht","sub26","02","03","feedback","test","null","","","na","","75","",""
"724","191001","HierDyphlhfcht","sub26","02","03","rl","test","74","img/o_t_diag.png","6","74","color,shape,pattern","76","1",""
"null","192013","HierDyphlhfcht","sub26","02","03","feedback","test","null","","","na","","76","",""
"1421","193436","HierDyphlhfcht","sub26","02","03","rl","test","75","img/o_d_check.png","7","75","color,shape,pattern","77","1",""
"null","194445","HierDyphlhfcht","sub26","02","03","feedback","test","null","","","na","","77","",""
"736.7000000029802","195183","HierDyphlhfcht","sub26","02","03","rl","test","65","img/p_t_check.png","1","65","color,shape,pattern","78","1",""
"null","196197","HierDyphlhfcht","sub26","02","03","feedback","test","null","","","na","","78","",""
"904.4000000059605","197103","HierDyphlhfcht","sub26","02","03","rl","test","68","img/p_d_check.png","3","68","color,shape,pattern","79","1",""
"null","198117","HierDyphlhfcht","sub26","02","03","feedback","test","null","","","na","","79","",""
"873.5999999940395","198992","HierDyphlhfcht","sub26","02","03","rl","test","83","img/p_t_diag.png","2","83","color,shape,pattern","80","1",""
"null","200005","HierDyphlhfcht","sub26","02","03","feedback","test","null","","","na","","80","",""
"986.2000000029802","200993","HierDyphlhfcht","sub26","02","03","rl","test","76","img/o_d_diag.png","8","76","color,shape,pattern","81","1",""
"null","202002","HierDyphlhfcht","sub26","02","03","feedback","test","null","","","na","","81","",""
"1311.800000011921","203316","HierDyphlhfcht","sub26","02","03","rl","test","72","img/o_t_check.png","5","72","color,shape,pattern","82","1",""
"null","204320","HierDyphlhfcht","sub26","02","03","feedback","test","null","","","na","","82","",""
"1106","205428","HierDyphlhfcht","sub26","02","03","rl","test","65","img/p_t_check.png","1","65","color,shape,pattern","83","1",""
"null","206437","HierDyphlhfcht","sub26","02","03","feedback","test","null","","","na","","83","",""
"698.4000000059605","207137","HierDyphlhfcht","sub26","02","03","rl","test","70","img/p_d_diag.png","4","70","color,shape,pattern","84","1",""
"null","208145","HierDyphlhfcht","sub26","02","03","feedback","test","null","","","na","","84","",""
"1807.2999999970198","209954","HierDyphlhfcht","sub26","02","03","rl","test","83","img/p_t_diag.png","2","83","color,shape,pattern","85","1",""
"null","210965","HierDyphlhfcht","sub26","02","03","feedback","test","null","","","na","","85","",""
"699.1000000089407","211666","HierDyphlhfcht","sub26","02","03","rl","test","74","img/o_t_diag.png","6","74","color,shape,pattern","86","1",""
"null","212677","HierDyphlhfcht","sub26","02","03","feedback","test","null","","","na","","86","",""
"963.4000000059605","213642","HierDyphlhfcht","sub26","02","03","rl","test","68","img/p_d_check.png","3","68","color,shape,pattern","87","1",""
"null","214653","HierDyphlhfcht","sub26","02","03","feedback","test","null","","","na","","87","",""
"848.5","215503","HierDyphlhfcht","sub26","02","03","rl","test","74","img/o_t_diag.png","6","74","color,shape,pattern","88","1",""
"null","216517","HierDyphlhfcht","sub26","02","03","feedback","test","null","","","na","","88","",""
"1572.300000011921","218091","HierDyphlhfcht","sub26","02","03","rl","test","75","img/o_d_check.png","7","75","color,shape,pattern","89","1",""
"null","219097","HierDyphlhfcht","sub26","02","03","feedback","test","null","","","na","","89","",""
"1206.699999988079","220306","HierDyphlhfcht","sub26","02","03","rl","test","68","img/p_d_check.png","3","68","color,shape,pattern","90","1",""
"null","221317","HierDyphlhfcht","sub26","02","03","feedback","test","null","","","na","","90","",""
"1126.9000000059605","222446","HierDyphlhfcht","sub26","02","03","rl","test","83","img/p_t_diag.png","2","83","color,shape,pattern","91","1",""
"null","223461","HierDyphlhfcht","sub26","02","03","feedback","test","null","","","na","","91","",""
"806.8000000119209","224270","HierDyphlhfcht","sub26","02","03","rl","test","76","img/o_d_diag.png","8","76","color,shape,pattern","92","1",""
"null","225285","HierDyphlhfcht","sub26","02","03","feedback","test","null","","","na","","92","",""
"856.8000000119209","226143","HierDyphlhfcht","sub26","02","03","rl","test","75","img/o_d_check.png","7","75","color,shape,pattern","93","1",""
"null","227156","HierDyphlhfcht","sub26","02","03","feedback","test","null","","","na","","93","",""
"1707.0999999940395","228865","HierDyphlhfcht","sub26","02","03","rl","test","75","img/o_d_check.png","7","75","color,shape,pattern","94","1",""
"null","229873","HierDyphlhfcht","sub26","02","03","feedback","test","null","","","na","","94","",""
"1290.5","231166","HierDyphlhfcht","sub26","02","03","rl","test","72","img/o_t_check.png","5","72","color,shape,pattern","95","1",""
"null","232181","HierDyphlhfcht","sub26","02","03","feedback","test","null","","","na","","95","",""
"695.5999999940395","232879","HierDyphlhfcht","sub26","02","03","rl","test","70","img/p_d_diag.png","4","70","color,shape,pattern","96","1",""
"null","233889","HierDyphlhfcht","sub26","02","03","feedback","test","null","","","na","","96","",""
"702.6999999880791","234594","HierDyphlhfcht","sub26","02","03","rl","test","65","img/p_t_check.png","1","65","color,shape,pattern","97","1",""
"null","235601","HierDyphlhfcht","sub26","02","03","feedback","test","null","","","na","","97","",""
"1228.7999999970198","236832","HierDyphlhfcht","sub26","02","03","rl","test","72","img/o_t_check.png","5","72","color,shape,pattern","98","1",""
"null","237842","HierDyphlhfcht","sub26","02","03","feedback","test","null","","","na","","98","",""
"1091.5","238936","HierDyphlhfcht","sub26","02","03","rl","test","68","img/p_d_check.png","3","68","color,shape,pattern","99","1",""
"null","239949","HierDyphlhfcht","sub26","02","03","feedback","test","null","","","na","","99","",""
"942.3999999910593","240893","HierDyphlhfcht","sub26","02","03","rl","test","65","img/p_t_check.png","1","65","color,shape,pattern","100","1",""
"null","241901","HierDyphlhfcht","sub26","02","03","feedback","test","null","","","na","","100","",""
"1813.3999999910593","243717","HierDyphlhfcht","sub26","02","03","rl","test","68","img/p_d_check.png","3","68","color,shape,pattern","101","1",""
"null","244725","HierDyphlhfcht","sub26","02","03","feedback","test","null","","","na","","101","",""
"891.2999999970198","245618","HierDyphlhfcht","sub26","02","03","rl","test","74","img/o_t_diag.png","6","74","color,shape,pattern","102","1",""
"null","246629","HierDyphlhfcht","sub26","02","03","feedback","test","null","","","na","","102","",""
"779","247410","HierDyphlhfcht","sub26","02","03","rl","test","70","img/p_d_diag.png","4","70","color,shape,pattern","103","1",""
"null","248421","HierDyphlhfcht","sub26","02","03","feedback","test","null","","","na","","103","",""
"489.5","248913","HierDyphlhfcht","sub26","02","03","rl","test","70","img/p_d_diag.png","4","70","color,shape,pattern","104","1",""
"null","249923","HierDyphlhfcht","sub26","02","03","feedback","test","null","","","na","","104","",""
"1065.199999988079","250990","HierDyphlhfcht","sub26","02","03","rl","test","83","img/p_t_diag.png","2","83","color,shape,pattern","105","1",""
"null","252005","HierDyphlhfcht","sub26","02","03","feedback","test","null","","","na","","105","",""
"668.2999999970198","252675","HierDyphlhfcht","sub26","02","03","rl","test","65","img/p_t_check.png","1","65","color,shape,pattern","106","1",""
"null","253685","HierDyphlhfcht","sub26","02","03","feedback","test","null","","","na","","106","",""
"1132.199999988079","254819","HierDyphlhfcht","sub26","02","03","rl","test","76","img/o_d_diag.png","8","76","color,shape,pattern","107","1",""
"null","255829","HierDyphlhfcht","sub26","02","03","feedback","test","null","","","na","","107","",""
"411.20000000298023","256242","HierDyphlhfcht","sub26","02","03","rl","test","76","img/o_d_diag.png","8","76","color,shape,pattern","108","1",""
"null","257249","HierDyphlhfcht","sub26","02","03","feedback","test","null","","","na","","108","",""
"1278.5","258529","HierDyphlhfcht","sub26","02","03","rl","test","75","img/o_d_check.png","7","75","color,shape,pattern","109","1",""
"null","259537","HierDyphlhfcht","sub26","02","03","feedback","test","null","","","na","","109","",""
"1245","260784","HierDyphlhfcht","sub26","02","03","rl","test","83","img/p_t_diag.png","2","83","color,shape,pattern","110","1",""
"null","261797","HierDyphlhfcht","sub26","02","03","feedback","test","null","","","na","","110","",""
"2187","263986","HierDyphlhfcht","sub26","02","03","rl","test","76","img/o_t_diag.png","6","74","color,shape,pattern","111","0",""
"null","264997","HierDyphlhfcht","sub26","02","03","feedback","test","null","","","na","","111","",""
"863.1999999880791","265862","HierDyphlhfcht","sub26","02","03","rl","test","70","img/p_d_diag.png","4","70","color,shape,pattern","112","1",""
"null","266877","HierDyphlhfcht","sub26","02","03","feedback","test","null","","","na","","112","",""
"718","267597","HierDyphlhfcht","sub26","02","03","rl","test","72","img/o_t_check.png","5","72","color,shape,pattern","113","1",""
"null","268605","HierDyphlhfcht","sub26","02","03","feedback","test","null","","","na","","113","",""
"841","269448","HierDyphlhfcht","sub26","02","03","rl","test","68","img/p_d_check.png","3","68","color,shape,pattern","114","1",""
"null","270457","HierDyphlhfcht","sub26","02","03","feedback","test","null","","","na","","114","",""
"1012.7000000029802","271472","HierDyphlhfcht","sub26","02","03","rl","test","74","img/o_t_diag.png","6","74","color,shape,pattern","115","1",""
"null","272483","HierDyphlhfcht","sub26","02","03","feedback","test","null","","","na","","115","",""
"726.4000000059605","273212","HierDyphlhfcht","sub26","02","03","rl","test","75","img/o_d_check.png","7","75","color,shape,pattern","116","1",""
"null","274221","HierDyphlhfcht","sub26","02","03","feedback","test","null","","","na","","116","",""
"712.6000000089407","274936","HierDyphlhfcht","sub26","02","03","rl","test","83","img/p_t_check.png","1","65","color,shape,pattern","117","0",""
"null","275949","HierDyphlhfcht","sub26","02","03","feedback","test","null","","","na","","117","",""
"918.5999999940395","276869","HierDyphlhfcht","sub26","02","03","rl","test","76","img/o_d_diag.png","8","76","color,shape,pattern","118","1",""
"null","277885","HierDyphlhfcht","sub26","02","03","feedback","test","null","","","na","","118","",""
"1405.5","279293","HierDyphlhfcht","sub26","02","03","rl","test","83","img/p_t_diag.png","2","83","color,shape,pattern","119","1",""
"null","280300","HierDyphlhfcht","sub26","02","03","feedback","test","null","","","na","","119","",""
"901","281204","HierDyphlhfcht","sub26","02","03","rl","test","76","img/o_d_diag.png","8","76","color,shape,pattern","120","1",""
"null","282209","HierDyphlhfcht","sub26","02","03","feedback","test","null","","","na","","120","",""
"847.6000000089407","283059","HierDyphlhfcht","sub26","02","03","rl","test","72","img/o_t_check.png","5","72","color,shape,pattern","121","1",""
"null","284069","HierDyphlhfcht","sub26","02","03","feedback","test","null","","","na","","121","",""
"1711.3999999910593","285782","HierDyphlhfcht","sub26","02","03","rl","test","83","img/p_t_diag.png","2","83","color,shape,pattern","122","1",""
"null","286797","HierDyphlhfcht","sub26","02","03","feedback","test","null","","","na","","122","",""
"1315","288114","HierDyphlhfcht","sub26","02","03","rl","test","75","img/o_d_check.png","7","75","color,shape,pattern","123","1",""
"null","289125","HierDyphlhfcht","sub26","02","03","feedback","test","null","","","na","","123","",""
"938.2999999970198","290065","HierDyphlhfcht","sub26","02","03","rl","test","68","img/p_d_check.png","3","68","color,shape,pattern","124","1",""
"null","291077","HierDyphlhfcht","sub26","02","03","feedback","test","null","","","na","","124","",""
"824.5999999940395","291904","HierDyphlhfcht","sub26","02","03","rl","test","72","img/o_t_check.png","5","72","color,shape,pattern","125","1",""
"null","292917","HierDyphlhfcht","sub26","02","03","feedback","test","null","","","na","","125","",""
"1310","294229","HierDyphlhfcht","sub26","02","03","rl","test","70","img/p_d_diag.png","4","70","color,shape,pattern","126","1",""
"null","295237","HierDyphlhfcht","sub26","02","03","feedback","test","null","","","na","","126","",""
"819.4000000059605","296058","HierDyphlhfcht","sub26","02","03","rl","test","74","img/o_t_diag.png","6","74","color,shape,pattern","127","1",""
"null","297069","HierDyphlhfcht","sub26","02","03","feedback","test","null","","","na","","127","",""
"771.7000000029802","297843","HierDyphlhfcht","sub26","02","03","rl","test","65","img/p_t_check.png","1","65","color,shape,pattern","128","1",""
"null","298848","HierDyphlhfcht","sub26","02","03","feedback","test","null","","","na","","128","",""
"1112.0999999940395","299962","HierDyphlhfcht","sub26","02","03","rl","test","75","img/o_d_check.png","7","75","color,shape,pattern","129","1",""
"null","300973","HierDyphlhfcht","sub26","02","03","feedback","test","null","","","na","","129","",""
"732.5999999940395","301707","HierDyphlhfcht","sub26","02","03","rl","test","65","img/p_t_check.png","1","65","color,shape,pattern","130","1",""
"null","302712","HierDyphlhfcht","sub26","02","03","feedback","test","null","","","na","","130","",""
"752.2999999970198","303467","HierDyphlhfcht","sub26","02","03","rl","test","70","img/p_d_diag.png","4","70","color,shape,pattern","131","1",""
"null","304477","HierDyphlhfcht","sub26","02","03","feedback","test","null","","","na","","131","",""
"920.5","305399","HierDyphlhfcht","sub26","02","03","rl","test","74","img/o_t_diag.png","6","74","color,shape,pattern","132","1",""
"null","306408","HierDyphlhfcht","sub26","02","03","feedback","test","null","","","na","","132","",""
"774.8000000119209","307185","HierDyphlhfcht","sub26","02","03","rl","test","68","img/p_d_check.png","3","68","color,shape,pattern","133","1",""
"null","308197","HierDyphlhfcht","sub26","02","03","feedback","test","null","","","na","","133","",""
"746.4000000059605","308945","HierDyphlhfcht","sub26","02","03","rl","test","76","img/o_d_diag.png","8","76","color,shape,pattern","134","1",""
"null","309957","HierDyphlhfcht","sub26","02","03","feedback","test","null","","","na","","134","",""
"800.2000000029802","310759","HierDyphlhfcht","sub26","02","03","rl","test","83","img/p_t_diag.png","2","83","color,shape,pattern","135","1",""
"null","311773","HierDyphlhfcht","sub26","02","03","feedback","test","null","","","na","","135","",""
"801.1000000089407","312576","HierDyphlhfcht","sub26","02","03","rl","test","72","img/o_t_check.png","5","72","color,shape,pattern","136","1",""
"null","313589","HierDyphlhfcht","sub26","02","03","feedback","test","null","","","na","","136","",""
"1629.5999999940395","315220","HierDyphlhfcht","sub26","02","03","rl","test","72","img/o_t_check.png","5","72","color,shape,pattern","137","1",""
"null","316229","HierDyphlhfcht","sub26","02","03","feedback","test","null","","","na","","137","",""
"1156","317387","HierDyphlhfcht","sub26","02","03","rl","test","83","img/p_t_diag.png","2","83","color,shape,pattern","138","1",""
"null","318396","HierDyphlhfcht","sub26","02","03","feedback","test","null","","","na","","138","",""
"1841.5999999940395","320240","HierDyphlhfcht","sub26","02","03","rl","test","74","img/o_t_diag.png","6","74","color,shape,pattern","139","1",""
"null","321249","HierDyphlhfcht","sub26","02","03","feedback","test","null","","","na","","139","",""
"702.1000000089407","321953","HierDyphlhfcht","sub26","02","03","rl","test","65","img/p_t_check.png","1","65","color,shape,pattern","140","1",""
"null","322965","HierDyphlhfcht","sub26","02","03","feedback","test","null","","","na","","140","",""
"1109.300000011921","324076","HierDyphlhfcht","sub26","02","03","rl","test","68","img/p_d_check.png","3","68","color,shape,pattern","141","1",""
"null","325085","HierDyphlhfcht","sub26","02","03","feedback","test","null","","","na","","141","",""
"1390.5","326477","HierDyphlhfcht","sub26","02","03","rl","test","75","img/o_d_check.png","7","75","color,shape,pattern","142","1",""
"null","327483","HierDyphlhfcht","sub26","02","03","feedback","test","null","","","na","","142","",""
"1048.9000000059605","328534","HierDyphlhfcht","sub26","02","03","rl","test","70","img/p_d_diag.png","4","70","color,shape,pattern","143","1",""
"null","329537","HierDyphlhfcht","sub26","02","03","feedback","test","null","","","na","","143","",""
"823.0999999940395","330362","HierDyphlhfcht","sub26","02","03","rl","test","83","img/p_t_diag.png","2","83","color,shape,pattern","144","1",""
"null","331373","HierDyphlhfcht","sub26","02","03","feedback","test","null","","","na","","144","",""
"961.7000000029802","332337","HierDyphlhfcht","sub26","02","03","rl","test","70","img/p_d_diag.png","4","70","color,shape,pattern","145","1",""
"null","333349","HierDyphlhfcht","sub26","02","03","feedback","test","null","","","na","","145","",""
"1236.5999999940395","334588","HierDyphlhfcht","sub26","02","03","rl","test","75","img/o_d_check.png","7","75","color,shape,pattern","146","1",""
"null","335597","HierDyphlhfcht","sub26","02","03","feedback","test","null","","","na","","146","",""
"1380.1000000089407","336979","HierDyphlhfcht","sub26","02","03","rl","test","76","img/o_d_diag.png","8","76","color,shape,pattern","147","1",""
"null","337989","HierDyphlhfcht","sub26","02","03","feedback","test","null","","","na","","147","",""
"809.8999999910593","338801","HierDyphlhfcht","sub26","02","03","rl","test","76","img/o_d_diag.png","8","76","color,shape,pattern","148","1",""
"null","339810","HierDyphlhfcht","sub26","02","03","feedback","test","null","","","na","","148","",""
"903.7000000029802","340716","HierDyphlhfcht","sub26","02","03","rl","test","72","img/o_t_check.png","5","72","color,shape,pattern","149","1",""
"null","341724","HierDyphlhfcht","sub26","02","03","feedback","test","null","","","na","","149","",""
"1273.7999999970198","343000","HierDyphlhfcht","sub26","02","03","rl","test","65","img/p_t_check.png","1","65","color,shape,pattern","150","1",""
"null","344008","HierDyphlhfcht","sub26","02","03","feedback","test","null","","","na","","150","",""
"1972.5","345983","HierDyphlhfcht","sub26","02","03","rl","test","68","img/p_d_check.png","3","68","color,shape,pattern","151","1",""
"null","346997","HierDyphlhfcht","sub26","02","03","feedback","test","null","","","na","","151","",""
"1270.7999999970198","348270","HierDyphlhfcht","sub26","02","03","rl","test","75","img/o_d_check.png","7","75","color,shape,pattern","152","1",""
"null","349285","HierDyphlhfcht","sub26","02","03","feedback","test","null","","","na","","152","",""
"1135.300000011921","350422","HierDyphlhfcht","sub26","02","03","rl","test","74","img/o_t_diag.png","6","74","color,shape,pattern","153","1",""
"null","351437","HierDyphlhfcht","sub26","02","03","feedback","test","null","","","na","","153","",""
"1093.2999999970198","352532","HierDyphlhfcht","sub26","02","03","rl","test","68","img/p_d_check.png","3","68","color,shape,pattern","154","1",""
"null","353537","HierDyphlhfcht","sub26","02","03","feedback","test","null","","","na","","154","",""
"1442.199999988079","354981","HierDyphlhfcht","sub26","02","03","rl","test","83","img/p_t_diag.png","2","83","color,shape,pattern","155","1",""
"null","355989","HierDyphlhfcht","sub26","02","03","feedback","test","null","","","na","","155","",""
"1416","357407","HierDyphlhfcht","sub26","02","03","rl","test","72","img/o_t_check.png","5","72","color,shape,pattern","156","1",""
"null","358421","HierDyphlhfcht","sub26","02","03","feedback","test","null","","","na","","156","",""
"750.5","359174","HierDyphlhfcht","sub26","02","03","rl","test","72","img/o_t_diag.png","6","74","color,shape,pattern","157","0",""
"null","360181","HierDyphlhfcht","sub26","02","03","feedback","test","null","","","na","","157","",""
"1679.699999988079","361863","HierDyphlhfcht","sub26","02","03","rl","test","65","img/p_t_check.png","1","65","color,shape,pattern","158","1",""
"null","362877","HierDyphlhfcht","sub26","02","03","feedback","test","null","","","na","","158","",""
"1160.199999988079","364039","HierDyphlhfcht","sub26","02","03","rl","test","68","img/p_d_check.png","3","68","color,shape,pattern","159","1",""
"null","365048","HierDyphlhfcht","sub26","02","03","feedback","test","null","","","na","","159","",""
"1338.2999999970198","366389","HierDyphlhfcht","sub26","02","03","rl","test","70","img/p_d_diag.png","4","70","color,shape,pattern","160","1",""
"null","367396","HierDyphlhfcht","sub26","02","03","feedback","test","null","","","na","","160","",""
"804.1000000089407","368203","HierDyphlhfcht","sub26","02","03","rl","test","70","img/p_d_diag.png","4","70","color,shape,pattern","161","1",""
"null","369210","HierDyphlhfcht","sub26","02","03","feedback","test","null","","","na","","161","",""
"1473","370685","HierDyphlhfcht","sub26","02","03","rl","test","76","img/o_d_diag.png","8","76","color,shape,pattern","162","1",""
"null","371692","HierDyphlhfcht","sub26","02","03","feedback","test","null","","","na","","162","",""
"844.4000000059605","372538","HierDyphlhfcht","sub26","02","03","rl","test","65","img/p_t_check.png","1","65","color,shape,pattern","163","1",""
"null","373548","HierDyphlhfcht","sub26","02","03","feedback","test","null","","","na","","163","",""
"1924.2999999970198","375474","HierDyphlhfcht","sub26","02","03","rl","test","83","img/p_t_diag.png","2","83","color,shape,pattern","164","1",""
"null","376483","HierDyphlhfcht","sub26","02","03","feedback","test","null","","","na","","164","",""
"1693.800000011921","378178","HierDyphlhfcht","sub26","02","03","rl","test","76","img/o_d_diag.png","8","76","color,shape,pattern","165","1",""
"null","379188","HierDyphlhfcht","sub26","02","03","feedback","test","null","","","na","","165","",""
"1545.6000000089407","380736","HierDyphlhfcht","sub26","02","03","rl","test","74","img/o_t_diag.png","6","74","color,shape,pattern","166","1",""
"null","381748","HierDyphlhfcht","sub26","02","03","feedback","test","null","","","na","","166","",""
"1486.2000000029802","383236","HierDyphlhfcht","sub26","02","03","rl","test","75","img/o_d_check.png","7","75","color,shape,pattern","167","1",""
"null","384244","HierDyphlhfcht","sub26","02","03","feedback","test","null","","","na","","167","",""
"1260.8999999910593","385507","HierDyphlhfcht","sub26","02","03","rl","test","72","img/o_t_check.png","5","72","color,shape,pattern","168","1",""
"null","386516","HierDyphlhfcht","sub26","02","03","feedback","test","null","","","na","","168","",""
"1045.9000000059605","387564","HierDyphlhfcht","sub26","02","03","rl","test","75","img/o_d_check.png","7","75","color,shape,pattern","169","1",""
"null","388572","HierDyphlhfcht","sub26","02","03","feedback","test","null","","","na","","169","",""
"1090.5","389664","HierDyphlhfcht","sub26","02","03","rl","test","65","img/p_t_check.png","1","65","color,shape,pattern","170","1",""
"null","390676","HierDyphlhfcht","sub26","02","03","feedback","test","null","","","na","","170","",""
"999.6999999880791","391678","HierDyphlhfcht","sub26","02","03","rl","test","76","img/o_d_diag.png","8","76","color,shape,pattern","171","1",""
"null","392680","HierDyphlhfcht","sub26","02","03","feedback","test","null","","","na","","171","",""
"1422.7999999970198","394105","HierDyphlhfcht","sub26","02","03","rl","test","83","img/p_d_diag.png","4","70","color,shape,pattern","172","0",""
"null","395116","HierDyphlhfcht","sub26","02","03","feedback","test","null","","","na","","172","",""
"861.0999999940395","395980","HierDyphlhfcht","sub26","02","03","rl","test","83","img/p_t_diag.png","2","83","color,shape,pattern","173","1",""
"null","396989","HierDyphlhfcht","sub26","02","03","feedback","test","null","","","na","","173","",""
"786.6000000089407","397777","HierDyphlhfcht","sub26","02","03","rl","test","68","img/p_d_check.png","3","68","color,shape,pattern","174","1",""
"null","398789","HierDyphlhfcht","sub26","02","03","feedback","test","null","","","na","","174","",""
"1172.7000000029802","399963","HierDyphlhfcht","sub26","02","03","rl","test","72","img/o_t_check.png","5","72","color,shape,pattern","175","1",""
"null","400973","HierDyphlhfcht","sub26","02","03","feedback","test","null","","","na","","175","",""
"897","401872","HierDyphlhfcht","sub26","02","03","rl","test","68","img/p_d_check.png","3","68","color,shape,pattern","176","1",""
"null","402880","HierDyphlhfcht","sub26","02","03","feedback","test","null","","","na","","176","",""
"720","403602","HierDyphlhfcht","sub26","02","03","rl","test","83","img/p_t_diag.png","2","83","color,shape,pattern","177","1",""
"null","404608","HierDyphlhfcht","sub26","02","03","feedback","test","null","","","na","","177","",""
"652.7999999970198","405263","HierDyphlhfcht","sub26","02","03","rl","test","65","img/p_t_check.png","1","65","color,shape,pattern","178","1",""
"null","406277","HierDyphlhfcht","sub26","02","03","feedback","test","null","","","na","","178","",""
"1153.7999999970198","407432","HierDyphlhfcht","sub26","02","03","rl","test","74","img/o_t_diag.png","6","74","color,shape,pattern","179","1",""
"null","408445","HierDyphlhfcht","sub26","02","03","feedback","test","null","","","na","","179","",""
"734.4000000059605","409181","HierDyphlhfcht","sub26","02","03","rl","test","74","img/o_t_diag.png","6","74","color,shape,pattern","180","1",""
"null","410189","HierDyphlhfcht","sub26","02","03","feedback","test","null","","","na","","180","",""
"1129.9000000059605","411321","HierDyphlhfcht","sub26","02","03","rl","test","76","img/o_d_diag.png","8","76","color,shape,pattern","181","1",""
"null","412333","HierDyphlhfcht","sub26","02","03","feedback","test","null","","","na","","181","",""
"1008.2000000029802","413343","HierDyphlhfcht","sub26","02","03","rl","test","75","img/o_d_check.png","7","75","color,shape,pattern","182","1",""
"null","414355","HierDyphlhfcht","sub26","02","03","feedback","test","null","","","na","","182","",""
"1074.7999999970198","415432","HierDyphlhfcht","sub26","02","03","rl","test","72","img/o_t_check.png","5","72","color,shape,pattern","183","1",""
"null","416445","HierDyphlhfcht","sub26","02","03","feedback","test","null","","","na","","183","",""
"913.7999999970198","417360","HierDyphlhfcht","sub26","02","03","rl","test","70","img/p_d_diag.png","4","70","color,shape,pattern","184","1",""
"null","418373","HierDyphlhfcht","sub26","02","03","feedback","test","null","","","na","","184","",""
"1057.8999999910593","419432","HierDyphlhfcht","sub26","02","03","rl","test","76","img/o_d_diag.png","8","76","color,shape,pattern","185","1",""
"null","420441","HierDyphlhfcht","sub26","02","03","feedback","test","null","","","na","","185","",""
"988","421432","HierDyphlhfcht","sub26","02","03","rl","test","70","img/p_d_diag.png","4","70","color,shape,pattern","186","1",""
"null","422445","HierDyphlhfcht","sub26","02","03","feedback","test","null","","","na","","186","",""
"1759","424206","HierDyphlhfcht","sub26","02","03","rl","test","68","img/p_d_check.png","3","68","color,shape,pattern","187","1",""
"null","425221","HierDyphlhfcht","sub26","02","03","feedback","test","null","","","na","","187","",""
"877.5","426101","HierDyphlhfcht","sub26","02","03","rl","test","72","img/o_t_check.png","5","72","color,shape,pattern","188","1",""
"null","427109","HierDyphlhfcht","sub26","02","03","feedback","test","null","","","na","","188","",""
"1289.7999999970198","428401","HierDyphlhfcht","sub26","02","03","rl","test","70","img/p_d_diag.png","4","70","color,shape,pattern","189","1",""
"null","429408","HierDyphlhfcht","sub26","02","03","feedback","test","null","","","na","","189","",""
"933.7999999970198","430345","HierDyphlhfcht","sub26","02","03","rl","test","74","img/o_t_diag.png","6","74","color,shape,pattern","190","1",""
"null","431353","HierDyphlhfcht","sub26","02","03","feedback","test","null","","","na","","190","",""
"972.3999999910593","432328","HierDyphlhfcht","sub26","02","03","rl","test","83","img/p_t_diag.png","2","83","color,shape,pattern","191","1",""
"null","433336","HierDyphlhfcht","sub26","02","03","feedback","test","null","","","na","","191","",""
"946.1000000089407","434283","HierDyphlhfcht","sub26","02","03","rl","test","83","img/p_t_diag.png","2","83","color,shape,pattern","192","1",""
"null","435290","HierDyphlhfcht","sub26","02","03","feedback","test","null","","","na","","192","",""
"973.7000000029802","436267","HierDyphlhfcht","sub26","02","03","rl","test","65","img/p_t_check.png","1","65","color,shape,pattern","193","1",""
"null","437273","HierDyphlhfcht","sub26","02","03","feedback","test","null","","","na","","193","",""
"986.2999999970198","438262","HierDyphlhfcht","sub26","02","03","rl","test","72","img/o_t_check.png","5","72","color,shape,pattern","194","1",""
"null","439273","HierDyphlhfcht","sub26","02","03","feedback","test","null","","","na","","194","",""
"1475.5999999940395","440751","HierDyphlhfcht","sub26","02","03","rl","test","75","img/o_d_check.png","7","75","color,shape,pattern","195","1",""
"null","441765","HierDyphlhfcht","sub26","02","03","feedback","test","null","","","na","","195","",""
"834.2999999970198","442601","HierDyphlhfcht","sub26","02","03","rl","test","76","img/o_d_diag.png","8","76","color,shape,pattern","196","1",""
"null","443610","HierDyphlhfcht","sub26","02","03","feedback","test","null","","","na","","196","",""
"623.6999999880791","444236","HierDyphlhfcht","sub26","02","03","rl","test","65","img/p_t_check.png","1","65","color,shape,pattern","197","1",""
"null","445243","HierDyphlhfcht","sub26","02","03","feedback","test","null","","","na","","197","",""
"1173.2000000029802","446418","HierDyphlhfcht","sub26","02","03","rl","test","74","img/o_t_diag.png","6","74","color,shape,pattern","198","1",""
"null","447429","HierDyphlhfcht","sub26","02","03","feedback","test","null","","","na","","198","",""
"824.1999999880791","448255","HierDyphlhfcht","sub26","02","03","rl","test","68","img/p_d_check.png","3","68","color,shape,pattern","199","1",""
"null","449267","HierDyphlhfcht","sub26","02","03","feedback","test","null","","","na","","199","",""
"799.1000000089407","450068","HierDyphlhfcht","sub26","02","03","rl","test","68","img/o_d_check.png","7","75","color,shape,pattern","200","0",""
"null","451077","HierDyphlhfcht","sub26","02","03","feedback","test","null","","","na","","200","",""
"1082.199999988079","452161","HierDyphlhfcht","sub26","02","03","rl","test","75","img/o_d_check.png","7","75","color,shape,pattern","201","1",""
"null","453170","HierDyphlhfcht","sub26","02","03","feedback","test","null","","","na","","201","",""
"750.1999999880791","453922","HierDyphlhfcht","sub26","02","03","rl","test","68","img/p_d_check.png","3","68","color,shape,pattern","202","1",""
"null","454933","HierDyphlhfcht","sub26","02","03","feedback","test","null","","","na","","202","",""
"414.20000000298023","455349","HierDyphlhfcht","sub26","02","03","rl","test","70","img/p_d_diag.png","4","70","color,shape,pattern","203","1",""
"null","456357","HierDyphlhfcht","sub26","02","03","feedback","test","null","","","na","","203","",""
"731.3999999910593","457091","HierDyphlhfcht","sub26","02","03","rl","test","65","img/p_t_check.png","1","65","color,shape,pattern","204","1",""
"null","458100","HierDyphlhfcht","sub26","02","03","feedback","test","null","","","na","","204","",""
"718","458820","HierDyphlhfcht","sub26","02","03","rl","test","76","img/o_d_diag.png","8","76","color,shape,pattern","205","1",""
"null","459829","HierDyphlhfcht","sub26","02","03","feedback","test","null","","","na","","205","",""
"864.1999999880791","460695","HierDyphlhfcht","sub26","02","03","rl","test","74","img/o_t_diag.png","6","74","color,shape,pattern","206","1",""
"null","461709","HierDyphlhfcht","sub26","02","03","feedback","test","null","","","na","","206","",""
"805.5","462516","HierDyphlhfcht","sub26","02","03","rl","test","83","img/p_t_diag.png","2","83","color,shape,pattern","207","1",""
"null","463525","HierDyphlhfcht","sub26","02","03","feedback","test","null","","","na","","207","",""
"587","464114","HierDyphlhfcht","sub26","02","03","rl","test","72","img/o_t_check.png","5","72","color,shape,pattern","208","1",""
"null","465125","HierDyphlhfcht","sub26","02","03","feedback","test","null","","","na","","208","",""
"754.7999999970198","465882","HierDyphlhfcht","sub26","02","03","rl","test","70","img/p_d_diag.png","4","70","color,shape,pattern","209","1",""
"null","466893","HierDyphlhfcht","sub26","02","03","feedback","test","null","","","na","","209","",""
"473.20000000298023","467368","HierDyphlhfcht","sub26","02","03","rl","test","72","img/o_t_check.png","5","72","color,shape,pattern","210","1",""
"null","468377","HierDyphlhfcht","sub26","02","03","feedback","test","null","","","na","","210","",""
"510.19999998807907","468889","HierDyphlhfcht","sub26","02","03","rl","test","65","img/p_t_check.png","1","65","color,shape,pattern","211","1",""
"null","469901","HierDyphlhfcht","sub26","02","03","feedback","test","null","","","na","","211","",""
"745.8999999910593","470649","HierDyphlhfcht","sub26","02","03","rl","test","74","img/o_t_diag.png","6","74","color,shape,pattern","212","1",""
"null","471661","HierDyphlhfcht","sub26","02","03","feedback","test","null","","","na","","212","",""
"733.7999999970198","472397","HierDyphlhfcht","sub26","02","03","rl","test","68","img/p_d_check.png","3","68","color,shape,pattern","213","1",""
"null","473405","HierDyphlhfcht","sub26","02","03","feedback","test","null","","","na","","213","",""
"750.6000000089407","474158","HierDyphlhfcht","sub26","02","03","rl","test","74","img/o_d_check.png","7","75","color,shape,pattern","214","0",""
"null","475173","HierDyphlhfcht","sub26","02","03","feedback","test","null","","","na","","214","",""
"630.6999999880791","475806","HierDyphlhfcht","sub26","02","03","rl","test","76","img/o_d_diag.png","8","76","color,shape,pattern","215","1",""
"null","476821","HierDyphlhfcht","sub26","02","03","feedback","test","null","","","na","","215","",""
"1071.3999999910593","477894","HierDyphlhfcht","sub26","02","03","rl","test","83","img/p_t_diag.png","2","83","color,shape,pattern","216","1",""
"null","478906","HierDyphlhfcht","sub26","02","03","feedback","test","null","","","na","","216","",""
"877.8000000119209","479787","HierDyphlhfcht","sub26","02","03","rl","test","68","img/p_d_check.png","3","68","color,shape,pattern","217","1",""
"null","480797","HierDyphlhfcht","sub26","02","03","feedback","test","null","","","na","","217","",""
"1885.5999999940395","482685","HierDyphlhfcht","sub26","02","03","rl","test","83","img/p_t_diag.png","2","83","color,shape,pattern","218","1",""
"null","483693","HierDyphlhfcht","sub26","02","03","feedback","test","null","","","na","","218","",""
"880.2000000029802","484575","HierDyphlhfcht","sub26","02","03","rl","test","75","img/o_d_check.png","7","75","color,shape,pattern","219","1",""
"null","485589","HierDyphlhfcht","sub26","02","03","feedback","test","null","","","na","","219","",""
"1001.5","486593","HierDyphlhfcht","sub26","02","03","rl","test","75","img/o_d_check.png","7","75","color,shape,pattern","220","1",""
"null","487605","HierDyphlhfcht","sub26","02","03","feedback","test","null","","","na","","220","",""
"804.9000000059605","488412","HierDyphlhfcht","sub26","02","03","rl","test","70","img/p_d_diag.png","4","70","color,shape,pattern","221","1",""
"null","489420","HierDyphlhfcht","sub26","02","03","feedback","test","null","","","na","","221","",""
"1628.6000000089407","491051","HierDyphlhfcht","sub26","02","03","rl","test","76","img/o_d_diag.png","8","76","color,shape,pattern","222","1",""
"null","492058","HierDyphlhfcht","sub26","02","03","feedback","test","null","","","na","","222","",""
"1176","493237","HierDyphlhfcht","sub26","02","03","rl","test","72","img/o_t_check.png","5","72","color,shape,pattern","223","1",""
"null","494245","HierDyphlhfcht","sub26","02","03","feedback","test","null","","","na","","223","",""
"742.2999999970198","494989","HierDyphlhfcht","sub26","02","03","rl","test","70","img/p_d_diag.png","4","70","color,shape,pattern","224","1",""
"null","496005","HierDyphlhfcht","sub26","02","03","feedback","test","null","","","na","","224","",""
"858.0999999940395","496865","HierDyphlhfcht","sub26","02","03","rl","test","65","img/p_t_check.png","1","65","color,shape,pattern","225","1",""
"null","497872","HierDyphlhfcht","sub26","02","03","feedback","test","null","","","na","","225","",""
"698.3999999910593","498573","HierDyphlhfcht","sub26","02","03","rl","test","76","img/o_d_diag.png","8","76","color,shape,pattern","226","1",""
"null","499577","HierDyphlhfcht","sub26","02","03","feedback","test","null","","","na","","226","",""
"1013.4000000059605","500592","HierDyphlhfcht","sub26","02","03","rl","test","74","img/o_t_diag.png","6","74","color,shape,pattern","227","1",""
"null","501605","HierDyphlhfcht","sub26","02","03","feedback","test","null","","","na","","227","",""
"594.1999999880791","502201","HierDyphlhfcht","sub26","02","03","rl","test","65","img/p_t_check.png","1","65","color,shape,pattern","228","1",""
"null","503213","HierDyphlhfcht","sub26","02","03","feedback","test","null","","","na","","228","",""
"1860.5","505075","HierDyphlhfcht","sub26","02","03","rl","test","68","img/p_d_check.png","3","68","color,shape,pattern","229","1",""
"null","506080","HierDyphlhfcht","sub26","02","03","feedback","test","null","","","na","","229","",""
"1070.5","507153","HierDyphlhfcht","sub26","02","03","rl","test","68","img/p_d_check.png","3","68","color,shape,pattern","230","1",""
"null","508165","HierDyphlhfcht","sub26","02","03","feedback","test","null","","","na","","230","",""
"100.20000000298023","508267","HierDyphlhfcht","sub26","02","03","rl","test","74","img/o_t_check.png","5","72","color,shape,pattern","231","0",""
"null","509277","HierDyphlhfcht","sub26","02","03","feedback","test","null","","","na","","231","",""
"1734.2000000029802","511013","HierDyphlhfcht","sub26","02","03","rl","test","74","img/o_t_diag.png","6","74","color,shape,pattern","232","1",""
"null","512021","HierDyphlhfcht","sub26","02","03","feedback","test","null","","","na","","232","",""
"787","512810","HierDyphlhfcht","sub26","02","03","rl","test","83","img/p_t_diag.png","2","83","color,shape,pattern","233","1",""
"null","513817","HierDyphlhfcht","sub26","02","03","feedback","test","null","","","na","","233","",""
"958.2000000029802","514778","HierDyphlhfcht","sub26","02","03","rl","test","70","img/p_d_diag.png","4","70","color,shape,pattern","234","1",""
"null","515787","HierDyphlhfcht","sub26","02","03","feedback","test","null","","","na","","234","",""
"1048.7999999970198","516838","HierDyphlhfcht","sub26","02","03","rl","test","75","img/o_d_check.png","7","75","color,shape,pattern","235","1",""
"null","517848","HierDyphlhfcht","sub26","02","03","feedback","test","null","","","na","","235","",""
"976.7000000029802","518827","HierDyphlhfcht","sub26","02","03","rl","test","74","img/o_t_diag.png","6","74","color,shape,pattern","236","1",""
"null","519837","HierDyphlhfcht","sub26","02","03","feedback","test","null","","","na","","236","",""
"687","520526","HierDyphlhfcht","sub26","02","03","rl","test","72","img/o_t_check.png","5","72","color,shape,pattern","237","1",""
"null","521537","HierDyphlhfcht","sub26","02","03","feedback","test","null","","","na","","237","",""
"985.7999999970198","522525","HierDyphlhfcht","sub26","02","03","rl","test","74","img/o_t_diag.png","6","74","color,shape,pattern","238","1",""
"null","523533","HierDyphlhfcht","sub26","02","03","feedback","test","null","","","na","","238","",""
"893.5","524429","HierDyphlhfcht","sub26","02","03","rl","test","65","img/p_t_check.png","1","65","color,shape,pattern","239","1",""
"null","525437","HierDyphlhfcht","sub26","02","03","feedback","test","null","","","na","","239","",""
"711.5","526151","HierDyphlhfcht","sub26","02","03","rl","test","76","img/o_d_diag.png","8","76","color,shape,pattern","240","1",""
"null","527165","HierDyphlhfcht","sub26","02","03","feedback","test","null","","","na","","240","",""
"742.5999999940395","527910","HierDyphlhfcht","sub26","02","03","rl","test","83","img/p_t_diag.png","2","83","color,shape,pattern","241","1",""
"null","528923","HierDyphlhfcht","sub26","02","03","feedback","test","null","","","na","","241","",""
"916","529842","HierDyphlhfcht","sub26","02","03","rl","test","83","img/p_t_diag.png","2","83","color,shape,pattern","242","1",""
"null","530850","HierDyphlhfcht","sub26","02","03","feedback","test","null","","","na","","242","",""
"1125.0999999940395","531978","HierDyphlhfcht","sub26","02","03","rl","test","76","img/o_d_diag.png","8","76","color,shape,pattern","243","1",""
"null","532986","HierDyphlhfcht","sub26","02","03","feedback","test","null","","","na","","243","",""
"1115.6000000089407","534104","HierDyphlhfcht","sub26","02","03","rl","test","75","img/o_d_check.png","7","75","color,shape,pattern","244","1",""
"null","535112","HierDyphlhfcht","sub26","02","03","feedback","test","null","","","na","","244","",""
"1529","536644","HierDyphlhfcht","sub26","02","03","rl","test","68","img/p_d_check.png","3","68","color,shape,pattern","245","1",""
"null","537653","HierDyphlhfcht","sub26","02","03","feedback","test","null","","","na","","245","",""
"930.2000000029802","538585","HierDyphlhfcht","sub26","02","03","rl","test","65","img/p_t_check.png","1","65","color,shape,pattern","246","1",""
"null","539596","HierDyphlhfcht","sub26","02","03","feedback","test","null","","","na","","246","",""
"999.5","540598","HierDyphlhfcht","sub26","02","03","rl","test","70","img/p_d_diag.png","4","70","color,shape,pattern","247","1",""
"null","541612","HierDyphlhfcht","sub26","02","03","feedback","test","null","","","na","","247","",""
"894.3999999910593","542508","HierDyphlhfcht","sub26","02","03","rl","test","72","img/o_t_check.png","5","72","color,shape,pattern","248","1",""
"null","543517","HierDyphlhfcht","sub26","02","03","feedback","test","null","","","na","","248","",""
"10908.29999999702","554429","HierDyphlhfcht","sub26","02","03","","","","","","","","","","{""Q0"":""8""}"
"32428.09999999404","586841","HierDyphlhfcht","sub26","02","03","","","","","","","","","","{""Q0"":""I used the same strategy as last time, although surprisingly I oddly retained what I learned from yesterday so I was faster and much more accurate today. ""}"
"7483.9000000059605","594325","HierDyphlhfcht","sub26","02","03","","","","","","","","","",""
