"rt","time_elapsed","subject","subID","group","day","trialType","phase","key_press","stim","stimNum","corrresp","hierarchy","trialNum","corr","responses"
"2360.899999976158","2362","HierDyut8h0683","sub06","06","6","","","","","","","","","",""
"","4235","HierDyut8h0683","sub06","06","6","fullscreen","","","","","","","","",""
"686","4923","HierDyut8h0683","sub06","06","6","","prac","","","","","","","",""
"533.7999999523163","5462","HierDyut8h0683","sub06","06","6","","","32","","","","","","",""
"435.10000002384186","5899","HierDyut8h0683","sub06","06","6","","prac","","","","","","","",""
"1451.5","7353","HierDyut8h0683","sub06","06","6","rl","test","70","img/r_s_stripes.png","4","70","pattern,shape,color","1","1",""
"null","8356","HierDyut8h0683","sub06","06","6","feedback","test","null","","","na","","1","",""
"1188.1000000238419","9547","HierDyut8h0683","sub06","06","6","rl","test","75","img/r_t_check.png","6","74","pattern,shape,color","2","0",""
"null","10554","HierDyut8h0683","sub06","06","6","feedback","test","null","","","na","","2","",""
"1248.2999999523163","11805","HierDyut8h0683","sub06","06","6","rl","test","72","img/o_t_check.png","5","72","pattern,shape,color","3","1",""
"null","12812","HierDyut8h0683","sub06","06","6","feedback","test","null","","","na","","3","",""
"1120.7999999523163","13935","HierDyut8h0683","sub06","06","6","rl","test","83","img/r_t_stripes.png","2","83","pattern,shape,color","4","1",""
"null","14941","HierDyut8h0683","sub06","06","6","feedback","test","null","","","na","","4","",""
"682.7999999523163","15626","HierDyut8h0683","sub06","06","6","rl","test","65","img/o_t_stripes.png","1","65","pattern,shape,color","5","1",""
"null","16632","HierDyut8h0683","sub06","06","6","feedback","test","null","","","na","","5","",""
"1101.8999999761581","17736","HierDyut8h0683","sub06","06","6","rl","test","75","img/o_s_check.png","7","75","pattern,shape,color","6","1",""
"null","18743","HierDyut8h0683","sub06","06","6","feedback","test","null","","","na","","6","",""
"1172.3999999761581","19918","HierDyut8h0683","sub06","06","6","rl","test","83","img/r_t_stripes.png","2","83","pattern,shape,color","7","1",""
"null","20925","HierDyut8h0683","sub06","06","6","feedback","test","null","","","na","","7","",""
"1127.6000000238419","22054","HierDyut8h0683","sub06","06","6","rl","test","68","img/o_s_stripes.png","3","68","pattern,shape,color","8","1",""
"null","23058","HierDyut8h0683","sub06","06","6","feedback","test","null","","","na","","8","",""
"1531.3000000715256","24591","HierDyut8h0683","sub06","06","6","rl","test","76","img/r_s_check.png","8","76","pattern,shape,color","9","1",""
"null","25597","HierDyut8h0683","sub06","06","6","feedback","test","null","","","na","","9","",""
"742.8999999761581","26342","HierDyut8h0683","sub06","06","6","rl","test","76","img/r_s_check.png","8","76","pattern,shape,color","10","1",""
"null","27346","HierDyut8h0683","sub06","06","6","feedback","test","null","","","na","","10","",""
"874.7999999523163","28223","HierDyut8h0683","sub06","06","6","rl","test","72","img/o_t_check.png","5","72","pattern,shape,color","11","1",""
"null","29230","HierDyut8h0683","sub06","06","6","feedback","test","null","","","na","","11","",""
"1566.2999999523163","30798","HierDyut8h0683","sub06","06","6","rl","test","70","img/r_s_stripes.png","4","70","pattern,shape,color","12","1",""
"null","31801","HierDyut8h0683","sub06","06","6","feedback","test","null","","","na","","12","",""
"1655.8000000715256","33459","HierDyut8h0683","sub06","06","6","rl","test","68","img/o_s_stripes.png","3","68","pattern,shape,color","13","1",""
"null","34463","HierDyut8h0683","sub06","06","6","feedback","test","null","","","na","","13","",""
"919.6000000238419","35385","HierDyut8h0683","sub06","06","6","rl","test","75","img/o_s_check.png","7","75","pattern,shape,color","14","1",""
"null","36389","HierDyut8h0683","sub06","06","6","feedback","test","null","","","na","","14","",""
"1328.8999999761581","37720","HierDyut8h0683","sub06","06","6","rl","test","72","img/r_t_check.png","6","74","pattern,shape,color","15","0",""
"null","38727","HierDyut8h0683","sub06","06","6","feedback","test","null","","","na","","15","",""
"818.0999999046326","39547","HierDyut8h0683","sub06","06","6","rl","test","65","img/o_t_stripes.png","1","65","pattern,shape,color","16","1",""
"null","40554","HierDyut8h0683","sub06","06","6","feedback","test","null","","","na","","16","",""
"2041.1999999284744","42598","HierDyut8h0683","sub06","06","6","rl","test","68","img/r_t_check.png","6","74","pattern,shape,color","17","0",""
"null","43601","HierDyut8h0683","sub06","06","6","feedback","test","null","","","na","","17","",""
"1255.7999999523163","44859","HierDyut8h0683","sub06","06","6","rl","test","70","img/r_s_stripes.png","4","70","pattern,shape,color","18","1",""
"null","45865","HierDyut8h0683","sub06","06","6","feedback","test","null","","","na","","18","",""
"1934.1999999284744","47801","HierDyut8h0683","sub06","06","6","rl","test","83","img/r_t_stripes.png","2","83","pattern,shape,color","19","1",""
"null","48808","HierDyut8h0683","sub06","06","6","feedback","test","null","","","na","","19","",""
"780.6000000238419","49591","HierDyut8h0683","sub06","06","6","rl","test","65","img/o_t_stripes.png","1","65","pattern,shape,color","20","1",""
"null","50596","HierDyut8h0683","sub06","06","6","feedback","test","null","","","na","","20","",""
"1289.5999999046326","51887","HierDyut8h0683","sub06","06","6","rl","test","72","img/o_t_check.png","5","72","pattern,shape,color","21","1",""
"null","52894","HierDyut8h0683","sub06","06","6","feedback","test","null","","","na","","21","",""
"1406.3999999761581","54303","HierDyut8h0683","sub06","06","6","rl","test","68","img/o_s_stripes.png","3","68","pattern,shape,color","22","1",""
"null","55310","HierDyut8h0683","sub06","06","6","feedback","test","null","","","na","","22","",""
"841.5","56153","HierDyut8h0683","sub06","06","6","rl","test","75","img/o_s_check.png","7","75","pattern,shape,color","23","1",""
"null","57156","HierDyut8h0683","sub06","06","6","feedback","test","null","","","na","","23","",""
"786.8000000715256","57944","HierDyut8h0683","sub06","06","6","rl","test","76","img/r_s_check.png","8","76","pattern,shape,color","24","1",""
"null","58947","HierDyut8h0683","sub06","06","6","feedback","test","null","","","na","","24","",""
"549.5","59499","HierDyut8h0683","sub06","06","6","rl","test","76","img/r_s_check.png","8","76","pattern,shape,color","25","1",""
"null","60501","HierDyut8h0683","sub06","06","6","feedback","test","null","","","na","","25","",""
"920.2000000476837","61423","HierDyut8h0683","sub06","06","6","rl","test","83","img/r_t_stripes.png","2","83","pattern,shape,color","26","1",""
"null","62425","HierDyut8h0683","sub06","06","6","feedback","test","null","","","na","","26","",""
"833","63260","HierDyut8h0683","sub06","06","6","rl","test","76","img/r_s_check.png","8","76","pattern,shape,color","27","1",""
"null","64267","HierDyut8h0683","sub06","06","6","feedback","test","null","","","na","","27","",""
"1487.1999999284744","65756","HierDyut8h0683","sub06","06","6","rl","test","68","img/o_s_stripes.png","3","68","pattern,shape,color","28","1",""
"null","66760","HierDyut8h0683","sub06","06","6","feedback","test","null","","","na","","28","",""
"1288.6000000238419","68051","HierDyut8h0683","sub06","06","6","rl","test","70","img/r_s_stripes.png","4","70","pattern,shape,color","29","1",""
"null","69058","HierDyut8h0683","sub06","06","6","feedback","test","null","","","na","","29","",""
"970.6999999284744","70031","HierDyut8h0683","sub06","06","6","rl","test","76","img/o_s_check.png","7","75","pattern,shape,color","30","0",""
"null","71033","HierDyut8h0683","sub06","06","6","feedback","test","null","","","na","","30","",""
"1422.1000000238419","72457","HierDyut8h0683","sub06","06","6","rl","test","74","img/r_t_check.png","6","74","pattern,shape,color","31","1",""
"null","73460","HierDyut8h0683","sub06","06","6","feedback","test","null","","","na","","31","",""
"1027.5","74490","HierDyut8h0683","sub06","06","6","rl","test","65","img/o_t_stripes.png","1","65","pattern,shape,color","32","1",""
"null","75494","HierDyut8h0683","sub06","06","6","feedback","test","null","","","na","","32","",""
"1515.4000000953674","77012","HierDyut8h0683","sub06","06","6","rl","test","75","img/o_s_check.png","7","75","pattern,shape,color","33","1",""
"null","78017","HierDyut8h0683","sub06","06","6","feedback","test","null","","","na","","33","",""
"1432.6999999284744","79452","HierDyut8h0683","sub06","06","6","rl","test","72","img/o_t_check.png","5","72","pattern,shape,color","34","1",""
"null","80455","HierDyut8h0683","sub06","06","6","feedback","test","null","","","na","","34","",""
"1113.1000000238419","81570","HierDyut8h0683","sub06","06","6","rl","test","65","img/o_t_stripes.png","1","65","pattern,shape,color","35","1",""
"null","82574","HierDyut8h0683","sub06","06","6","feedback","test","null","","","na","","35","",""
"1656.6000000238419","84232","HierDyut8h0683","sub06","06","6","rl","test","74","img/r_t_check.png","6","74","pattern,shape,color","36","1",""
"null","85237","HierDyut8h0683","sub06","06","6","feedback","test","null","","","na","","36","",""
"1481.2000000476837","86720","HierDyut8h0683","sub06","06","6","rl","test","70","img/r_s_stripes.png","4","70","pattern,shape,color","37","1",""
"null","87725","HierDyut8h0683","sub06","06","6","feedback","test","null","","","na","","37","",""
"1371.0999999046326","89098","HierDyut8h0683","sub06","06","6","rl","test","72","img/o_t_check.png","5","72","pattern,shape,color","38","1",""
"null","90105","HierDyut8h0683","sub06","06","6","feedback","test","null","","","na","","38","",""
"1674.5","91781","HierDyut8h0683","sub06","06","6","rl","test","70","img/r_s_stripes.png","4","70","pattern,shape,color","39","1",""
"null","92784","HierDyut8h0683","sub06","06","6","feedback","test","null","","","na","","39","",""
"2090","94875","HierDyut8h0683","sub06","06","6","rl","test","83","img/r_t_stripes.png","2","83","pattern,shape,color","40","1",""
"null","95882","HierDyut8h0683","sub06","06","6","feedback","test","null","","","na","","40","",""
"1209.5999999046326","97093","HierDyut8h0683","sub06","06","6","rl","test","68","img/o_s_stripes.png","3","68","pattern,shape,color","41","1",""
"null","98101","HierDyut8h0683","sub06","06","6","feedback","test","null","","","na","","41","",""
"1244.5999999046326","99347","HierDyut8h0683","sub06","06","6","rl","test","76","img/r_s_check.png","8","76","pattern,shape,color","42","1",""
"null","100350","HierDyut8h0683","sub06","06","6","feedback","test","null","","","na","","42","",""
"1443.5","101795","HierDyut8h0683","sub06","06","6","rl","test","72","img/o_s_check.png","7","75","pattern,shape,color","43","0",""
"null","102801","HierDyut8h0683","sub06","06","6","feedback","test","null","","","na","","43","",""
"1594.2000000476837","104397","HierDyut8h0683","sub06","06","6","rl","test","72","img/r_t_check.png","6","74","pattern,shape,color","44","0",""
"null","105404","HierDyut8h0683","sub06","06","6","feedback","test","null","","","na","","44","",""
"1705.1999999284744","107111","HierDyut8h0683","sub06","06","6","rl","test","65","img/o_t_stripes.png","1","65","pattern,shape,color","45","1",""
"null","108115","HierDyut8h0683","sub06","06","6","feedback","test","null","","","na","","45","",""
"1615.3999999761581","109732","HierDyut8h0683","sub06","06","6","rl","test","65","img/o_t_stripes.png","1","65","pattern,shape,color","46","1",""
"null","110735","HierDyut8h0683","sub06","06","6","feedback","test","null","","","na","","46","",""
"1754.7999999523163","112491","HierDyut8h0683","sub06","06","6","rl","test","65","img/o_t_check.png","5","72","pattern,shape,color","47","0",""
"null","113498","HierDyut8h0683","sub06","06","6","feedback","test","null","","","na","","47","",""
"1220.6999999284744","114721","HierDyut8h0683","sub06","06","6","rl","test","68","img/o_s_stripes.png","3","68","pattern,shape,color","48","1",""
"null","115728","HierDyut8h0683","sub06","06","6","feedback","test","null","","","na","","48","",""
"913.7000000476837","116644","HierDyut8h0683","sub06","06","6","rl","test","83","img/r_t_stripes.png","2","83","pattern,shape,color","49","1",""
"null","117649","HierDyut8h0683","sub06","06","6","feedback","test","null","","","na","","49","",""
"990.0999999046326","118641","HierDyut8h0683","sub06","06","6","rl","test","68","img/o_s_stripes.png","3","68","pattern,shape,color","50","1",""
"null","119645","HierDyut8h0683","sub06","06","6","feedback","test","null","","","na","","50","",""
"1796.1999999284744","121443","HierDyut8h0683","sub06","06","6","rl","test","72","img/o_t_check.png","5","72","pattern,shape,color","51","1",""
"null","122450","HierDyut8h0683","sub06","06","6","feedback","test","null","","","na","","51","",""
"1002.3000000715256","123454","HierDyut8h0683","sub06","06","6","rl","test","83","img/r_t_stripes.png","2","83","pattern,shape,color","52","1",""
"null","124459","HierDyut8h0683","sub06","06","6","feedback","test","null","","","na","","52","",""
"998.7999999523163","125459","HierDyut8h0683","sub06","06","6","rl","test","70","img/r_s_stripes.png","4","70","pattern,shape,color","53","1",""
"null","126465","HierDyut8h0683","sub06","06","6","feedback","test","null","","","na","","53","",""
"1022.1000000238419","127489","HierDyut8h0683","sub06","06","6","rl","test","76","img/r_s_check.png","8","76","pattern,shape,color","54","1",""
"null","128492","HierDyut8h0683","sub06","06","6","feedback","test","null","","","na","","54","",""
"1291.3000000715256","129785","HierDyut8h0683","sub06","06","6","rl","test","74","img/r_t_check.png","6","74","pattern,shape,color","55","1",""
"null","130790","HierDyut8h0683","sub06","06","6","feedback","test","null","","","na","","55","",""
"1013.5","131805","HierDyut8h0683","sub06","06","6","rl","test","74","img/r_t_check.png","6","74","pattern,shape,color","56","1",""
"null","132811","HierDyut8h0683","sub06","06","6","feedback","test","null","","","na","","56","",""
"2002.2999999523163","134816","HierDyut8h0683","sub06","06","6","rl","test","83","img/r_t_stripes.png","2","83","pattern,shape,color","57","1",""
"null","135820","HierDyut8h0683","sub06","06","6","feedback","test","null","","","na","","57","",""
"1319.1000000238419","137141","HierDyut8h0683","sub06","06","6","rl","test","75","img/o_s_check.png","7","75","pattern,shape,color","58","1",""
"null","138145","HierDyut8h0683","sub06","06","6","feedback","test","null","","","na","","58","",""
"1257.6999999284744","139405","HierDyut8h0683","sub06","06","6","rl","test","70","img/r_s_stripes.png","4","70","pattern,shape,color","59","1",""
"null","140411","HierDyut8h0683","sub06","06","6","feedback","test","null","","","na","","59","",""
"777.7000000476837","141190","HierDyut8h0683","sub06","06","6","rl","test","68","img/o_s_stripes.png","3","68","pattern,shape,color","60","1",""
"null","142193","HierDyut8h0683","sub06","06","6","feedback","test","null","","","na","","60","",""
"802.7000000476837","142998","HierDyut8h0683","sub06","06","6","rl","test","65","img/o_t_stripes.png","1","65","pattern,shape,color","61","1",""
"null","144005","HierDyut8h0683","sub06","06","6","feedback","test","null","","","na","","61","",""
"727.5","144734","HierDyut8h0683","sub06","06","6","rl","test","76","img/r_s_check.png","8","76","pattern,shape,color","62","1",""
"null","145742","HierDyut8h0683","sub06","06","6","feedback","test","null","","","na","","62","",""
"831","146575","HierDyut8h0683","sub06","06","6","rl","test","65","img/o_t_stripes.png","1","65","pattern,shape,color","63","1",""
"null","147579","HierDyut8h0683","sub06","06","6","feedback","test","null","","","na","","63","",""
"1045.3999999761581","148627","HierDyut8h0683","sub06","06","6","rl","test","72","img/o_t_check.png","5","72","pattern,shape,color","64","1",""
"null","149634","HierDyut8h0683","sub06","06","6","feedback","test","null","","","na","","64","",""
"1250.8999999761581","150887","HierDyut8h0683","sub06","06","6","rl","test","75","img/o_s_check.png","7","75","pattern,shape,color","65","1",""
"null","151894","HierDyut8h0683","sub06","06","6","feedback","test","null","","","na","","65","",""
"1530.8000000715256","153426","HierDyut8h0683","sub06","06","6","rl","test","68","img/o_s_stripes.png","3","68","pattern,shape,color","66","1",""
"null","154434","HierDyut8h0683","sub06","06","6","feedback","test","null","","","na","","66","",""
"1129.6000000238419","155565","HierDyut8h0683","sub06","06","6","rl","test","72","img/o_t_check.png","5","72","pattern,shape,color","67","1",""
"null","156568","HierDyut8h0683","sub06","06","6","feedback","test","null","","","na","","67","",""
"849.5","157419","HierDyut8h0683","sub06","06","6","rl","test","83","img/r_t_stripes.png","2","83","pattern,shape,color","68","1",""
"null","158426","HierDyut8h0683","sub06","06","6","feedback","test","null","","","na","","68","",""
"1327","159755","HierDyut8h0683","sub06","06","6","rl","test","75","img/o_s_check.png","7","75","pattern,shape,color","69","1",""
"null","160763","HierDyut8h0683","sub06","06","6","feedback","test","null","","","na","","69","",""
"1645.2999999523163","162410","HierDyut8h0683","sub06","06","6","rl","test","74","img/r_t_check.png","6","74","pattern,shape,color","70","1",""
"null","163412","HierDyut8h0683","sub06","06","6","feedback","test","null","","","na","","70","",""
"1554.0999999046326","164969","HierDyut8h0683","sub06","06","6","rl","test","70","img/r_s_stripes.png","4","70","pattern,shape,color","71","1",""
"null","165973","HierDyut8h0683","sub06","06","6","feedback","test","null","","","na","","71","",""
"1298.2999999523163","167273","HierDyut8h0683","sub06","06","6","rl","test","75","img/o_t_check.png","5","72","pattern,shape,color","72","0",""
"null","168279","HierDyut8h0683","sub06","06","6","feedback","test","null","","","na","","72","",""
"1085.2000000476837","169366","HierDyut8h0683","sub06","06","6","rl","test","76","img/r_s_check.png","8","76","pattern,shape,color","73","1",""
"null","170373","HierDyut8h0683","sub06","06","6","feedback","test","null","","","na","","73","",""
"2481.2999999523163","172856","HierDyut8h0683","sub06","06","6","rl","test","76","img/r_s_check.png","8","76","pattern,shape,color","74","1",""
"null","173863","HierDyut8h0683","sub06","06","6","feedback","test","null","","","na","","74","",""
"1085.1999999284744","174950","HierDyut8h0683","sub06","06","6","rl","test","70","img/r_s_stripes.png","4","70","pattern,shape,color","75","1",""
"null","175957","HierDyut8h0683","sub06","06","6","feedback","test","null","","","na","","75","",""
"1641.1000000238419","177600","HierDyut8h0683","sub06","06","6","rl","test","74","img/r_t_check.png","6","74","pattern,shape,color","76","1",""
"null","178607","HierDyut8h0683","sub06","06","6","feedback","test","null","","","na","","76","",""
"1713.8999999761581","180322","HierDyut8h0683","sub06","06","6","rl","test","75","img/o_s_check.png","7","75","pattern,shape,color","77","1",""
"null","181324","HierDyut8h0683","sub06","06","6","feedback","test","null","","","na","","77","",""
"1892.5","183218","HierDyut8h0683","sub06","06","6","rl","test","68","img/o_t_stripes.png","1","65","pattern,shape,color","78","0",""
"null","184225","HierDyut8h0683","sub06","06","6","feedback","test","null","","","na","","78","",""
"2024.2999999523163","186251","HierDyut8h0683","sub06","06","6","rl","test","68","img/o_s_stripes.png","3","68","pattern,shape,color","79","1",""
"null","187253","HierDyut8h0683","sub06","06","6","feedback","test","null","","","na","","79","",""
"1979.3000000715256","189235","HierDyut8h0683","sub06","06","6","rl","test","83","img/r_t_stripes.png","2","83","pattern,shape,color","80","1",""
"null","190240","HierDyut8h0683","sub06","06","6","feedback","test","null","","","na","","80","",""
"822","191064","HierDyut8h0683","sub06","06","6","rl","test","76","img/r_s_check.png","8","76","pattern,shape,color","81","1",""
"null","192068","HierDyut8h0683","sub06","06","6","feedback","test","null","","","na","","81","",""
"1487.7999999523163","193558","HierDyut8h0683","sub06","06","6","rl","test","72","img/o_t_check.png","5","72","pattern,shape,color","82","1",""
"null","194564","HierDyut8h0683","sub06","06","6","feedback","test","null","","","na","","82","",""
"1267.8999999761581","195834","HierDyut8h0683","sub06","06","6","rl","test","83","img/o_t_stripes.png","1","65","pattern,shape,color","83","0",""
"null","196839","HierDyut8h0683","sub06","06","6","feedback","test","null","","","na","","83","",""
"1358.7000000476837","198200","HierDyut8h0683","sub06","06","6","rl","test","70","img/r_s_stripes.png","4","70","pattern,shape,color","84","1",""
"null","199207","HierDyut8h0683","sub06","06","6","feedback","test","null","","","na","","84","",""
"1311.0999999046326","200520","HierDyut8h0683","sub06","06","6","rl","test","83","img/r_t_stripes.png","2","83","pattern,shape,color","85","1",""
"null","201523","HierDyut8h0683","sub06","06","6","feedback","test","null","","","na","","85","",""
"1354.5","202879","HierDyut8h0683","sub06","06","6","rl","test","72","img/r_t_check.png","6","74","pattern,shape,color","86","0",""
"null","203886","HierDyut8h0683","sub06","06","6","feedback","test","null","","","na","","86","",""
"818.3999999761581","204707","HierDyut8h0683","sub06","06","6","rl","test","68","img/o_s_stripes.png","3","68","pattern,shape,color","87","1",""
"null","205712","HierDyut8h0683","sub06","06","6","feedback","test","null","","","na","","87","",""
"1715.1999999284744","207429","HierDyut8h0683","sub06","06","6","rl","test","74","img/r_t_check.png","6","74","pattern,shape,color","88","1",""
"null","208433","HierDyut8h0683","sub06","06","6","feedback","test","null","","","na","","88","",""
"1085.6999999284744","209520","HierDyut8h0683","sub06","06","6","rl","test","75","img/o_s_check.png","7","75","pattern,shape,color","89","1",""
"null","210522","HierDyut8h0683","sub06","06","6","feedback","test","null","","","na","","89","",""
"1781.7999999523163","212306","HierDyut8h0683","sub06","06","6","rl","test","68","img/o_s_stripes.png","3","68","pattern,shape,color","90","1",""
"null","213310","HierDyut8h0683","sub06","06","6","feedback","test","null","","","na","","90","",""
"1719.3999999761581","215031","HierDyut8h0683","sub06","06","6","rl","test","83","img/r_t_stripes.png","2","83","pattern,shape,color","91","1",""
"null","216036","HierDyut8h0683","sub06","06","6","feedback","test","null","","","na","","91","",""
"937.3999999761581","216976","HierDyut8h0683","sub06","06","6","rl","test","76","img/r_s_check.png","8","76","pattern,shape,color","92","1",""
"null","217983","HierDyut8h0683","sub06","06","6","feedback","test","null","","","na","","92","",""
"819","218804","HierDyut8h0683","sub06","06","6","rl","test","75","img/o_s_check.png","7","75","pattern,shape,color","93","1",""
"null","219807","HierDyut8h0683","sub06","06","6","feedback","test","null","","","na","","93","",""
"853.1000000238419","220663","HierDyut8h0683","sub06","06","6","rl","test","76","img/o_s_check.png","7","75","pattern,shape,color","94","0",""
"null","221667","HierDyut8h0683","sub06","06","6","feedback","test","null","","","na","","94","",""
"1250.2000000476837","222919","HierDyut8h0683","sub06","06","6","rl","test","72","img/o_t_check.png","5","72","pattern,shape,color","95","1",""
"null","223924","HierDyut8h0683","sub06","06","6","feedback","test","null","","","na","","95","",""
"910.1000000238419","224836","HierDyut8h0683","sub06","06","6","rl","test","83","img/r_s_stripes.png","4","70","pattern,shape,color","96","0",""
"null","225839","HierDyut8h0683","sub06","06","6","feedback","test","null","","","na","","96","",""
"753.1999999284744","226594","HierDyut8h0683","sub06","06","6","rl","test","65","img/o_t_stripes.png","1","65","pattern,shape,color","97","1",""
"null","227601","HierDyut8h0683","sub06","06","6","feedback","test","null","","","na","","97","",""
"1023.7999999523163","228628","HierDyut8h0683","sub06","06","6","rl","test","72","img/o_t_check.png","5","72","pattern,shape,color","98","1",""
"null","229635","HierDyut8h0683","sub06","06","6","feedback","test","null","","","na","","98","",""
"1089.6000000238419","230727","HierDyut8h0683","sub06","06","6","rl","test","68","img/o_s_stripes.png","3","68","pattern,shape,color","99","1",""
"null","231734","HierDyut8h0683","sub06","06","6","feedback","test","null","","","na","","99","",""
"2007.3999999761581","233743","HierDyut8h0683","sub06","06","6","rl","test","83","img/o_t_stripes.png","1","65","pattern,shape,color","100","0",""
"null","234746","HierDyut8h0683","sub06","06","6","feedback","test","null","","","na","","100","",""
"1652.5999999046326","236400","HierDyut8h0683","sub06","06","6","rl","test","68","img/o_s_stripes.png","3","68","pattern,shape,color","101","1",""
"null","237407","HierDyut8h0683","sub06","06","6","feedback","test","null","","","na","","101","",""
"1857.8999999761581","239266","HierDyut8h0683","sub06","06","6","rl","test","72","img/r_t_check.png","6","74","pattern,shape,color","102","0",""
"null","240270","HierDyut8h0683","sub06","06","6","feedback","test","null","","","na","","102","",""
"1404.2000000476837","241676","HierDyut8h0683","sub06","06","6","rl","test","83","img/r_s_stripes.png","4","70","pattern,shape,color","103","0",""
"null","242679","HierDyut8h0683","sub06","06","6","feedback","test","null","","","na","","103","",""
"1770.3999999761581","244451","HierDyut8h0683","sub06","06","6","rl","test","70","img/r_s_stripes.png","4","70","pattern,shape,color","104","1",""
"null","245454","HierDyut8h0683","sub06","06","6","feedback","test","null","","","na","","104","",""
"1578.7999999523163","247035","HierDyut8h0683","sub06","06","6","rl","test","83","img/r_t_stripes.png","2","83","pattern,shape,color","105","1",""
"null","248040","HierDyut8h0683","sub06","06","6","feedback","test","null","","","na","","105","",""
"2040.2000000476837","250083","HierDyut8h0683","sub06","06","6","rl","test","72","img/o_t_stripes.png","1","65","pattern,shape,color","106","0",""
"null","251087","HierDyut8h0683","sub06","06","6","feedback","test","null","","","na","","106","",""
"1724.1000000238419","252813","HierDyut8h0683","sub06","06","6","rl","test","74","img/r_s_check.png","8","76","pattern,shape,color","107","0",""
"null","253820","HierDyut8h0683","sub06","06","6","feedback","test","null","","","na","","107","",""
"1616.1999999284744","255438","HierDyut8h0683","sub06","06","6","rl","test","76","img/r_s_check.png","8","76","pattern,shape,color","108","1",""
"null","256443","HierDyut8h0683","sub06","06","6","feedback","test","null","","","na","","108","",""
"994.8999999761581","257440","HierDyut8h0683","sub06","06","6","rl","test","75","img/o_s_check.png","7","75","pattern,shape,color","109","1",""
"null","258442","HierDyut8h0683","sub06","06","6","feedback","test","null","","","na","","109","",""
"null","260947","HierDyut8h0683","sub06","06","6","rl","test","null","img/r_t_stripes.png","2","83","pattern,shape,color","110","0",""
"null","261951","HierDyut8h0683","sub06","06","6","feedback","test","null","","","na","","110","",""
"1737.1999999284744","263690","HierDyut8h0683","sub06","06","6","rl","test","74","img/r_t_check.png","6","74","pattern,shape,color","111","1",""
"null","264697","HierDyut8h0683","sub06","06","6","feedback","test","null","","","na","","111","",""
"1369.8000000715256","266068","HierDyut8h0683","sub06","06","6","rl","test","68","img/r_s_stripes.png","4","70","pattern,shape,color","112","0",""
"null","267074","HierDyut8h0683","sub06","06","6","feedback","test","null","","","na","","112","",""
"1550.2999999523163","268627","HierDyut8h0683","sub06","06","6","rl","test","72","img/o_t_check.png","5","72","pattern,shape,color","113","1",""
"null","269631","HierDyut8h0683","sub06","06","6","feedback","test","null","","","na","","113","",""
"1198.1000000238419","270831","HierDyut8h0683","sub06","06","6","rl","test","75","img/o_s_stripes.png","3","68","pattern,shape,color","114","0",""
"null","271835","HierDyut8h0683","sub06","06","6","feedback","test","null","","","na","","114","",""
"1190.2999999523163","273028","HierDyut8h0683","sub06","06","6","rl","test","68","img/r_t_check.png","6","74","pattern,shape,color","115","0",""
"null","274030","HierDyut8h0683","sub06","06","6","feedback","test","null","","","na","","115","",""
"1493.8999999761581","275526","HierDyut8h0683","sub06","06","6","rl","test","75","img/o_s_check.png","7","75","pattern,shape,color","116","1",""
"null","276533","HierDyut8h0683","sub06","06","6","feedback","test","null","","","na","","116","",""
"1785.2000000476837","278320","HierDyut8h0683","sub06","06","6","rl","test","68","img/o_t_stripes.png","1","65","pattern,shape,color","117","0",""
"null","279327","HierDyut8h0683","sub06","06","6","feedback","test","null","","","na","","117","",""
"1221.5","280550","HierDyut8h0683","sub06","06","6","rl","test","76","img/r_s_check.png","8","76","pattern,shape,color","118","1",""
"null","281556","HierDyut8h0683","sub06","06","6","feedback","test","null","","","na","","118","",""
"1067.7999999523163","282626","HierDyut8h0683","sub06","06","6","rl","test","83","img/r_t_stripes.png","2","83","pattern,shape,color","119","1",""
"null","283630","HierDyut8h0683","sub06","06","6","feedback","test","null","","","na","","119","",""
"974.3999999761581","284606","HierDyut8h0683","sub06","06","6","rl","test","76","img/r_s_check.png","8","76","pattern,shape,color","120","1",""
"null","285609","HierDyut8h0683","sub06","06","6","feedback","test","null","","","na","","120","",""
"1399.1000000238419","287010","HierDyut8h0683","sub06","06","6","rl","test","72","img/o_t_check.png","5","72","pattern,shape,color","121","1",""
"null","288015","HierDyut8h0683","sub06","06","6","feedback","test","null","","","na","","121","",""
"1301.7999999523163","289319","HierDyut8h0683","sub06","06","6","rl","test","83","img/r_t_stripes.png","2","83","pattern,shape,color","122","1",""
"null","290323","HierDyut8h0683","sub06","06","6","feedback","test","null","","","na","","122","",""
"1751.7999999523163","292077","HierDyut8h0683","sub06","06","6","rl","test","76","img/o_s_check.png","7","75","pattern,shape,color","123","0",""
"null","293085","HierDyut8h0683","sub06","06","6","feedback","test","null","","","na","","123","",""
"1705.8000000715256","294793","HierDyut8h0683","sub06","06","6","rl","test","68","img/o_s_stripes.png","3","68","pattern,shape,color","124","1",""
"null","295796","HierDyut8h0683","sub06","06","6","feedback","test","null","","","na","","124","",""
"1710.1000000238419","297508","HierDyut8h0683","sub06","06","6","rl","test","72","img/o_t_check.png","5","72","pattern,shape,color","125","1",""
"null","298511","HierDyut8h0683","sub06","06","6","feedback","test","null","","","na","","125","",""
"1508.2999999523163","300021","HierDyut8h0683","sub06","06","6","rl","test","83","img/r_s_stripes.png","4","70","pattern,shape,color","126","0",""
"null","301025","HierDyut8h0683","sub06","06","6","feedback","test","null","","","na","","126","",""
"null","303531","HierDyut8h0683","sub06","06","6","rl","test","null","img/r_t_check.png","6","74","pattern,shape,color","127","0",""
"null","304535","HierDyut8h0683","sub06","06","6","feedback","test","null","","","na","","127","",""
"667.8999999761581","305204","HierDyut8h0683","sub06","06","6","rl","test","65","img/o_t_stripes.png","1","65","pattern,shape,color","128","1",""
"null","306211","HierDyut8h0683","sub06","06","6","feedback","test","null","","","na","","128","",""
"972.5","307186","HierDyut8h0683","sub06","06","6","rl","test","75","img/o_s_check.png","7","75","pattern,shape,color","129","1",""
"null","308191","HierDyut8h0683","sub06","06","6","feedback","test","null","","","na","","129","",""
"673.1000000238419","308866","HierDyut8h0683","sub06","06","6","rl","test","65","img/o_t_stripes.png","1","65","pattern,shape,color","130","1",""
"null","309872","HierDyut8h0683","sub06","06","6","feedback","test","null","","","na","","130","",""
"833.7000000476837","310708","HierDyut8h0683","sub06","06","6","rl","test","68","img/r_s_stripes.png","4","70","pattern,shape,color","131","0",""
"null","311715","HierDyut8h0683","sub06","06","6","feedback","test","null","","","na","","131","",""
"907.5","312625","HierDyut8h0683","sub06","06","6","rl","test","72","img/r_t_check.png","6","74","pattern,shape,color","132","0",""
"null","313632","HierDyut8h0683","sub06","06","6","feedback","test","null","","","na","","132","",""
"783.2000000476837","314417","HierDyut8h0683","sub06","06","6","rl","test","68","img/o_s_stripes.png","3","68","pattern,shape,color","133","1",""
"null","315424","HierDyut8h0683","sub06","06","6","feedback","test","null","","","na","","133","",""
"1075.8000000715256","316501","HierDyut8h0683","sub06","06","6","rl","test","76","img/r_s_check.png","8","76","pattern,shape,color","134","1",""
"null","317507","HierDyut8h0683","sub06","06","6","feedback","test","null","","","na","","134","",""
"1409.5","318918","HierDyut8h0683","sub06","06","6","rl","test","83","img/r_t_stripes.png","2","83","pattern,shape,color","135","1",""
"null","319920","HierDyut8h0683","sub06","06","6","feedback","test","null","","","na","","135","",""
"1069.8999999761581","320992","HierDyut8h0683","sub06","06","6","rl","test","72","img/o_t_check.png","5","72","pattern,shape,color","136","1",""
"null","321999","HierDyut8h0683","sub06","06","6","feedback","test","null","","","na","","136","",""
"1459.7999999523163","323460","HierDyut8h0683","sub06","06","6","rl","test","72","img/o_t_check.png","5","72","pattern,shape,color","137","1",""
"null","324467","HierDyut8h0683","sub06","06","6","feedback","test","null","","","na","","137","",""
"1794.7999999523163","326264","HierDyut8h0683","sub06","06","6","rl","test","83","img/r_t_stripes.png","2","83","pattern,shape,color","138","1",""
"null","327271","HierDyut8h0683","sub06","06","6","feedback","test","null","","","na","","138","",""
"1111.1999999284744","328384","HierDyut8h0683","sub06","06","6","rl","test","74","img/r_t_check.png","6","74","pattern,shape,color","139","1",""
"null","329390","HierDyut8h0683","sub06","06","6","feedback","test","null","","","na","","139","",""
"844.0999999046326","330236","HierDyut8h0683","sub06","06","6","rl","test","83","img/o_t_stripes.png","1","65","pattern,shape,color","140","0",""
"null","331240","HierDyut8h0683","sub06","06","6","feedback","test","null","","","na","","140","",""
"689.7999999523163","331932","HierDyut8h0683","sub06","06","6","rl","test","68","img/o_s_stripes.png","3","68","pattern,shape,color","141","1",""
"null","332936","HierDyut8h0683","sub06","06","6","feedback","test","null","","","na","","141","",""
"827","333765","HierDyut8h0683","sub06","06","6","rl","test","75","img/o_s_check.png","7","75","pattern,shape,color","142","1",""
"null","334771","HierDyut8h0683","sub06","06","6","feedback","test","null","","","na","","142","",""
"1716.4000000953674","336489","HierDyut8h0683","sub06","06","6","rl","test","68","img/r_s_stripes.png","4","70","pattern,shape,color","143","0",""
"null","337497","HierDyut8h0683","sub06","06","6","feedback","test","null","","","na","","143","",""
"1073.1000000238419","338572","HierDyut8h0683","sub06","06","6","rl","test","74","img/r_t_stripes.png","2","83","pattern,shape,color","144","0",""
"null","339576","HierDyut8h0683","sub06","06","6","feedback","test","null","","","na","","144","",""
"null","342083","HierDyut8h0683","sub06","06","6","rl","test","null","img/r_s_stripes.png","4","70","pattern,shape,color","145","0",""
"null","343088","HierDyut8h0683","sub06","06","6","feedback","test","null","","","na","","145","",""
"1230.7999999523163","344320","HierDyut8h0683","sub06","06","6","rl","test","76","img/o_s_check.png","7","75","pattern,shape,color","146","0",""
"null","345325","HierDyut8h0683","sub06","06","6","feedback","test","null","","","na","","146","",""
"1130.3999999761581","346458","HierDyut8h0683","sub06","06","6","rl","test","76","img/r_s_check.png","8","76","pattern,shape,color","147","1",""
"null","347464","HierDyut8h0683","sub06","06","6","feedback","test","null","","","na","","147","",""
"1108.8000000715256","348574","HierDyut8h0683","sub06","06","6","rl","test","76","img/r_s_check.png","8","76","pattern,shape,color","148","1",""
"null","349580","HierDyut8h0683","sub06","06","6","feedback","test","null","","","na","","148","",""
"1501.8999999761581","351084","HierDyut8h0683","sub06","06","6","rl","test","72","img/o_t_check.png","5","72","pattern,shape,color","149","1",""
"null","352087","HierDyut8h0683","sub06","06","6","feedback","test","null","","","na","","149","",""
"899.2999999523163","352988","HierDyut8h0683","sub06","06","6","rl","test","65","img/o_t_stripes.png","1","65","pattern,shape,color","150","1",""
"null","353995","HierDyut8h0683","sub06","06","6","feedback","test","null","","","na","","150","",""
"1278.1000000238419","355275","HierDyut8h0683","sub06","06","6","rl","test","83","img/o_s_stripes.png","3","68","pattern,shape,color","151","0",""
"null","356277","HierDyut8h0683","sub06","06","6","feedback","test","null","","","na","","151","",""
"1210.5","357489","HierDyut8h0683","sub06","06","6","rl","test","75","img/o_s_check.png","7","75","pattern,shape,color","152","1",""
"null","358497","HierDyut8h0683","sub06","06","6","feedback","test","null","","","na","","152","",""
"1112.9000000953674","359612","HierDyut8h0683","sub06","06","6","rl","test","74","img/r_t_check.png","6","74","pattern,shape,color","153","1",""
"null","360616","HierDyut8h0683","sub06","06","6","feedback","test","null","","","na","","153","",""
"1208.2000000476837","361827","HierDyut8h0683","sub06","06","6","rl","test","68","img/o_s_stripes.png","3","68","pattern,shape,color","154","1",""
"null","362832","HierDyut8h0683","sub06","06","6","feedback","test","null","","","na","","154","",""
"1362.5","364196","HierDyut8h0683","sub06","06","6","rl","test","83","img/r_t_stripes.png","2","83","pattern,shape,color","155","1",""
"null","365201","HierDyut8h0683","sub06","06","6","feedback","test","null","","","na","","155","",""
"1773.5","366977","HierDyut8h0683","sub06","06","6","rl","test","72","img/o_t_check.png","5","72","pattern,shape,color","156","1",""
"null","367982","HierDyut8h0683","sub06","06","6","feedback","test","null","","","na","","156","",""
"893.2999999523163","368877","HierDyut8h0683","sub06","06","6","rl","test","74","img/r_t_check.png","6","74","pattern,shape,color","157","1",""
"null","369882","HierDyut8h0683","sub06","06","6","feedback","test","null","","","na","","157","",""
"1226.6000000238419","371110","HierDyut8h0683","sub06","06","6","rl","test","68","img/o_t_stripes.png","1","65","pattern,shape,color","158","0",""
"null","372117","HierDyut8h0683","sub06","06","6","feedback","test","null","","","na","","158","",""
"1083.5","373203","HierDyut8h0683","sub06","06","6","rl","test","68","img/o_s_stripes.png","3","68","pattern,shape,color","159","1",""
"null","374210","HierDyut8h0683","sub06","06","6","feedback","test","null","","","na","","159","",""
"692.1999999284744","374904","HierDyut8h0683","sub06","06","6","rl","test","70","img/r_s_stripes.png","4","70","pattern,shape,color","160","1",""
"null","375910","HierDyut8h0683","sub06","06","6","feedback","test","null","","","na","","160","",""
"756.2000000476837","376669","HierDyut8h0683","sub06","06","6","rl","test","70","img/r_s_stripes.png","4","70","pattern,shape,color","161","1",""
"null","377675","HierDyut8h0683","sub06","06","6","feedback","test","null","","","na","","161","",""
"1511.1000000238419","379188","HierDyut8h0683","sub06","06","6","rl","test","76","img/r_s_check.png","8","76","pattern,shape,color","162","1",""
"null","380192","HierDyut8h0683","sub06","06","6","feedback","test","null","","","na","","162","",""
"652.7000000476837","380847","HierDyut8h0683","sub06","06","6","rl","test","65","img/o_t_stripes.png","1","65","pattern,shape,color","163","1",""
"null","381854","HierDyut8h0683","sub06","06","6","feedback","test","null","","","na","","163","",""
"701.8999999761581","382558","HierDyut8h0683","sub06","06","6","rl","test","83","img/r_t_stripes.png","2","83","pattern,shape,color","164","1",""
"null","383564","HierDyut8h0683","sub06","06","6","feedback","test","null","","","na","","164","",""
"714.9000000953674","384281","HierDyut8h0683","sub06","06","6","rl","test","76","img/r_s_check.png","8","76","pattern,shape,color","165","1",""
"null","385288","HierDyut8h0683","sub06","06","6","feedback","test","null","","","na","","165","",""
"902","386193","HierDyut8h0683","sub06","06","6","rl","test","74","img/r_t_check.png","6","74","pattern,shape,color","166","1",""
"null","387200","HierDyut8h0683","sub06","06","6","feedback","test","null","","","na","","166","",""
"810.1000000238419","388012","HierDyut8h0683","sub06","06","6","rl","test","76","img/o_s_check.png","7","75","pattern,shape,color","167","0",""
"null","389015","HierDyut8h0683","sub06","06","6","feedback","test","null","","","na","","167","",""
"1308.7000000476837","390326","HierDyut8h0683","sub06","06","6","rl","test","72","img/o_t_check.png","5","72","pattern,shape,color","168","1",""
"null","391330","HierDyut8h0683","sub06","06","6","feedback","test","null","","","na","","168","",""
"1216.6000000238419","392549","HierDyut8h0683","sub06","06","6","rl","test","75","img/o_s_check.png","7","75","pattern,shape,color","169","1",""
"null","393556","HierDyut8h0683","sub06","06","6","feedback","test","null","","","na","","169","",""
"815.2000000476837","394373","HierDyut8h0683","sub06","06","6","rl","test","83","img/o_t_stripes.png","1","65","pattern,shape,color","170","0",""
"null","395378","HierDyut8h0683","sub06","06","6","feedback","test","null","","","na","","170","",""
"1250.7000000476837","396631","HierDyut8h0683","sub06","06","6","rl","test","76","img/r_s_check.png","8","76","pattern,shape,color","171","1",""
"null","397634","HierDyut8h0683","sub06","06","6","feedback","test","null","","","na","","171","",""
"1293.5","398929","HierDyut8h0683","sub06","06","6","rl","test","70","img/r_s_stripes.png","4","70","pattern,shape,color","172","1",""
"null","399933","HierDyut8h0683","sub06","06","6","feedback","test","null","","","na","","172","",""
"1226.3999999761581","401161","HierDyut8h0683","sub06","06","6","rl","test","83","img/r_t_stripes.png","2","83","pattern,shape,color","173","1",""
"null","402168","HierDyut8h0683","sub06","06","6","feedback","test","null","","","na","","173","",""
"1239.6999999284744","403410","HierDyut8h0683","sub06","06","6","rl","test","68","img/o_s_stripes.png","3","68","pattern,shape,color","174","1",""
"null","404418","HierDyut8h0683","sub06","06","6","feedback","test","null","","","na","","174","",""
"899.5","405319","HierDyut8h0683","sub06","06","6","rl","test","72","img/o_t_check.png","5","72","pattern,shape,color","175","1",""
"null","406323","HierDyut8h0683","sub06","06","6","feedback","test","null","","","na","","175","",""
"1437.5999999046326","407763","HierDyut8h0683","sub06","06","6","rl","test","68","img/o_s_stripes.png","3","68","pattern,shape,color","176","1",""
"null","408770","HierDyut8h0683","sub06","06","6","feedback","test","null","","","na","","176","",""
"1609.1000000238419","410381","HierDyut8h0683","sub06","06","6","rl","test","83","img/r_t_stripes.png","2","83","pattern,shape,color","177","1",""
"null","411387","HierDyut8h0683","sub06","06","6","feedback","test","null","","","na","","177","",""
"834.2000000476837","412223","HierDyut8h0683","sub06","06","6","rl","test","68","img/o_t_stripes.png","1","65","pattern,shape,color","178","0",""
"null","413225","HierDyut8h0683","sub06","06","6","feedback","test","null","","","na","","178","",""
"939.3999999761581","414166","HierDyut8h0683","sub06","06","6","rl","test","74","img/r_t_check.png","6","74","pattern,shape,color","179","1",""
"null","415173","HierDyut8h0683","sub06","06","6","feedback","test","null","","","na","","179","",""
"1025","416200","HierDyut8h0683","sub06","06","6","rl","test","74","img/r_t_check.png","6","74","pattern,shape,color","180","1",""
"null","417207","HierDyut8h0683","sub06","06","6","feedback","test","null","","","na","","180","",""
"978.5","418187","HierDyut8h0683","sub06","06","6","rl","test","76","img/r_s_check.png","8","76","pattern,shape,color","181","1",""
"null","419194","HierDyut8h0683","sub06","06","6","feedback","test","null","","","na","","181","",""
"779","419975","HierDyut8h0683","sub06","06","6","rl","test","75","img/o_s_check.png","7","75","pattern,shape,color","182","1",""
"null","420979","HierDyut8h0683","sub06","06","6","feedback","test","null","","","na","","182","",""
"1428.9000000953674","422410","HierDyut8h0683","sub06","06","6","rl","test","72","img/o_t_check.png","5","72","pattern,shape,color","183","1",""
"null","423416","HierDyut8h0683","sub06","06","6","feedback","test","null","","","na","","183","",""
"1997.5","425416","HierDyut8h0683","sub06","06","6","rl","test","70","img/r_s_stripes.png","4","70","pattern,shape,color","184","1",""
"null","426422","HierDyut8h0683","sub06","06","6","feedback","test","null","","","na","","184","",""
"939.3999999761581","427363","HierDyut8h0683","sub06","06","6","rl","test","76","img/r_s_check.png","8","76","pattern,shape,color","185","1",""
"null","428367","HierDyut8h0683","sub06","06","6","feedback","test","null","","","na","","185","",""
"1241.5","429611","HierDyut8h0683","sub06","06","6","rl","test","70","img/r_s_stripes.png","4","70","pattern,shape,color","186","1",""
"null","430615","HierDyut8h0683","sub06","06","6","feedback","test","null","","","na","","186","",""
"1241.2000000476837","431858","HierDyut8h0683","sub06","06","6","rl","test","68","img/o_s_stripes.png","3","68","pattern,shape,color","187","1",""
"null","432864","HierDyut8h0683","sub06","06","6","feedback","test","null","","","na","","187","",""
"1531","434397","HierDyut8h0683","sub06","06","6","rl","test","72","img/o_t_check.png","5","72","pattern,shape,color","188","1",""
"null","435405","HierDyut8h0683","sub06","06","6","feedback","test","null","","","na","","188","",""
"1826.6999999284744","437233","HierDyut8h0683","sub06","06","6","rl","test","68","img/r_s_stripes.png","4","70","pattern,shape,color","189","0",""
"null","438236","HierDyut8h0683","sub06","06","6","feedback","test","null","","","na","","189","",""
"1808.8999999761581","440047","HierDyut8h0683","sub06","06","6","rl","test","74","img/r_t_check.png","6","74","pattern,shape,color","190","1",""
"null","441053","HierDyut8h0683","sub06","06","6","feedback","test","null","","","na","","190","",""
"1963","443018","HierDyut8h0683","sub06","06","6","rl","test","83","img/r_t_stripes.png","2","83","pattern,shape,color","191","1",""
"null","444021","HierDyut8h0683","sub06","06","6","feedback","test","null","","","na","","191","",""
"1528.7999999523163","445552","HierDyut8h0683","sub06","06","6","rl","test","68","img/r_t_stripes.png","2","83","pattern,shape,color","192","0",""
"null","446559","HierDyut8h0683","sub06","06","6","feedback","test","null","","","na","","192","",""
"1090.2999999523163","447651","HierDyut8h0683","sub06","06","6","rl","test","65","img/o_t_stripes.png","1","65","pattern,shape,color","193","1",""
"null","448657","HierDyut8h0683","sub06","06","6","feedback","test","null","","","na","","193","",""
"1597","450256","HierDyut8h0683","sub06","06","6","rl","test","72","img/o_t_check.png","5","72","pattern,shape,color","194","1",""
"null","451261","HierDyut8h0683","sub06","06","6","feedback","test","null","","","na","","194","",""
"1486.7000000476837","452750","HierDyut8h0683","sub06","06","6","rl","test","75","img/o_s_check.png","7","75","pattern,shape,color","195","1",""
"null","453753","HierDyut8h0683","sub06","06","6","feedback","test","null","","","na","","195","",""
"729.5","454484","HierDyut8h0683","sub06","06","6","rl","test","76","img/r_s_check.png","8","76","pattern,shape,color","196","1",""
"null","455492","HierDyut8h0683","sub06","06","6","feedback","test","null","","","na","","196","",""
"1499.0999999046326","456993","HierDyut8h0683","sub06","06","6","rl","test","65","img/o_t_stripes.png","1","65","pattern,shape,color","197","1",""
"null","457996","HierDyut8h0683","sub06","06","6","feedback","test","null","","","na","","197","",""
"1568.3000000715256","459567","HierDyut8h0683","sub06","06","6","rl","test","68","img/r_t_check.png","6","74","pattern,shape,color","198","0",""
"null","460570","HierDyut8h0683","sub06","06","6","feedback","test","null","","","na","","198","",""
"1264","461836","HierDyut8h0683","sub06","06","6","rl","test","68","img/o_s_stripes.png","3","68","pattern,shape,color","199","1",""
"null","462840","HierDyut8h0683","sub06","06","6","feedback","test","null","","","na","","199","",""
"1153.3999999761581","463995","HierDyut8h0683","sub06","06","6","rl","test","76","img/o_s_check.png","7","75","pattern,shape,color","200","0",""
"null","465001","HierDyut8h0683","sub06","06","6","feedback","test","null","","","na","","200","",""
"753.8999999761581","465757","HierDyut8h0683","sub06","06","6","rl","test","75","img/o_s_check.png","7","75","pattern,shape,color","201","1",""
"null","466760","HierDyut8h0683","sub06","06","6","feedback","test","null","","","na","","201","",""
"1228.3999999761581","467990","HierDyut8h0683","sub06","06","6","rl","test","68","img/o_s_stripes.png","3","68","pattern,shape,color","202","1",""
"null","468996","HierDyut8h0683","sub06","06","6","feedback","test","null","","","na","","202","",""
"653.5","469651","HierDyut8h0683","sub06","06","6","rl","test","70","img/r_s_stripes.png","4","70","pattern,shape,color","203","1",""
"null","470656","HierDyut8h0683","sub06","06","6","feedback","test","null","","","na","","203","",""
"1100.7999999523163","471759","HierDyut8h0683","sub06","06","6","rl","test","72","img/o_t_stripes.png","1","65","pattern,shape,color","204","0",""
"null","472765","HierDyut8h0683","sub06","06","6","feedback","test","null","","","na","","204","",""
"1126","473893","HierDyut8h0683","sub06","06","6","rl","test","76","img/r_s_check.png","8","76","pattern,shape,color","205","1",""
"null","474896","HierDyut8h0683","sub06","06","6","feedback","test","null","","","na","","205","",""
"1247.6999999284744","476146","HierDyut8h0683","sub06","06","6","rl","test","74","img/r_t_check.png","6","74","pattern,shape,color","206","1",""
"null","477151","HierDyut8h0683","sub06","06","6","feedback","test","null","","","na","","206","",""
"1633","478786","HierDyut8h0683","sub06","06","6","rl","test","83","img/r_t_stripes.png","2","83","pattern,shape,color","207","1",""
"null","479793","HierDyut8h0683","sub06","06","6","feedback","test","null","","","na","","207","",""
"null","482296","HierDyut8h0683","sub06","06","6","rl","test","null","img/o_t_check.png","5","72","pattern,shape,color","208","0",""
"null","483302","HierDyut8h0683","sub06","06","6","feedback","test","null","","","na","","208","",""
"989.8000000715256","484294","HierDyut8h0683","sub06","06","6","rl","test","83","img/r_s_stripes.png","4","70","pattern,shape,color","209","0",""
"null","485300","HierDyut8h0683","sub06","06","6","feedback","test","null","","","na","","209","",""
"1272.1000000238419","486574","HierDyut8h0683","sub06","06","6","rl","test","68","img/o_t_check.png","5","72","pattern,shape,color","210","0",""
"null","487579","HierDyut8h0683","sub06","06","6","feedback","test","null","","","na","","210","",""
"793.8999999761581","488376","HierDyut8h0683","sub06","06","6","rl","test","65","img/o_t_stripes.png","1","65","pattern,shape,color","211","1",""
"null","489379","HierDyut8h0683","sub06","06","6","feedback","test","null","","","na","","211","",""
"1489.7999999523163","490871","HierDyut8h0683","sub06","06","6","rl","test","74","img/r_t_check.png","6","74","pattern,shape,color","212","1",""
"null","491877","HierDyut8h0683","sub06","06","6","feedback","test","null","","","na","","212","",""
"1637","493516","HierDyut8h0683","sub06","06","6","rl","test","68","img/o_s_stripes.png","3","68","pattern,shape,color","213","1",""
"null","494523","HierDyut8h0683","sub06","06","6","feedback","test","null","","","na","","213","",""
"923.7000000476837","495448","HierDyut8h0683","sub06","06","6","rl","test","75","img/o_s_check.png","7","75","pattern,shape,color","214","1",""
"null","496455","HierDyut8h0683","sub06","06","6","feedback","test","null","","","na","","214","",""
"748.6999999284744","497206","HierDyut8h0683","sub06","06","6","rl","test","76","img/r_s_check.png","8","76","pattern,shape,color","215","1",""
"null","498213","HierDyut8h0683","sub06","06","6","feedback","test","null","","","na","","215","",""
"1161.6999999284744","499377","HierDyut8h0683","sub06","06","6","rl","test","83","img/r_t_stripes.png","2","83","pattern,shape,color","216","1",""
"null","500382","HierDyut8h0683","sub06","06","6","feedback","test","null","","","na","","216","",""
"1606.0999999046326","501990","HierDyut8h0683","sub06","06","6","rl","test","68","img/o_s_stripes.png","3","68","pattern,shape,color","217","1",""
"null","502994","HierDyut8h0683","sub06","06","6","feedback","test","null","","","na","","217","",""
"2211.5","505208","HierDyut8h0683","sub06","06","6","rl","test","83","img/r_t_stripes.png","2","83","pattern,shape,color","218","1",""
"null","506212","HierDyut8h0683","sub06","06","6","feedback","test","null","","","na","","218","",""
"1476.8999999761581","507691","HierDyut8h0683","sub06","06","6","rl","test","74","img/o_s_check.png","7","75","pattern,shape,color","219","0",""
"null","508695","HierDyut8h0683","sub06","06","6","feedback","test","null","","","na","","219","",""
"677","509374","HierDyut8h0683","sub06","06","6","rl","test","75","img/o_s_check.png","7","75","pattern,shape,color","220","1",""
"null","510378","HierDyut8h0683","sub06","06","6","feedback","test","null","","","na","","220","",""
"1211.5","511592","HierDyut8h0683","sub06","06","6","rl","test","70","img/r_s_stripes.png","4","70","pattern,shape,color","221","1",""
"null","512597","HierDyut8h0683","sub06","06","6","feedback","test","null","","","na","","221","",""
"963.3999999761581","513563","HierDyut8h0683","sub06","06","6","rl","test","70","img/r_s_check.png","8","76","pattern,shape,color","222","0",""
"null","514570","HierDyut8h0683","sub06","06","6","feedback","test","null","","","na","","222","",""
"1679.2000000476837","516251","HierDyut8h0683","sub06","06","6","rl","test","72","img/o_t_check.png","5","72","pattern,shape,color","223","1",""
"null","517258","HierDyut8h0683","sub06","06","6","feedback","test","null","","","na","","223","",""
"1467","518727","HierDyut8h0683","sub06","06","6","rl","test","70","img/r_s_stripes.png","4","70","pattern,shape,color","224","1",""
"null","519734","HierDyut8h0683","sub06","06","6","feedback","test","null","","","na","","224","",""
"767.1000000238419","520503","HierDyut8h0683","sub06","06","6","rl","test","65","img/o_t_stripes.png","1","65","pattern,shape,color","225","1",""
"null","521505","HierDyut8h0683","sub06","06","6","feedback","test","null","","","na","","225","",""
"858.1000000238419","522364","HierDyut8h0683","sub06","06","6","rl","test","76","img/r_s_check.png","8","76","pattern,shape,color","226","1",""
"null","523370","HierDyut8h0683","sub06","06","6","feedback","test","null","","","na","","226","",""
"1563","524935","HierDyut8h0683","sub06","06","6","rl","test","74","img/r_t_check.png","6","74","pattern,shape,color","227","1",""
"null","525939","HierDyut8h0683","sub06","06","6","feedback","test","null","","","na","","227","",""
"762.8999999761581","526704","HierDyut8h0683","sub06","06","6","rl","test","65","img/o_t_stripes.png","1","65","pattern,shape,color","228","1",""
"null","527710","HierDyut8h0683","sub06","06","6","feedback","test","null","","","na","","228","",""
"1197.1000000238419","528909","HierDyut8h0683","sub06","06","6","rl","test","68","img/o_s_stripes.png","3","68","pattern,shape,color","229","1",""
"null","529915","HierDyut8h0683","sub06","06","6","feedback","test","null","","","na","","229","",""
"623.1000000238419","530541","HierDyut8h0683","sub06","06","6","rl","test","68","img/o_s_stripes.png","3","68","pattern,shape,color","230","1",""
"null","531546","HierDyut8h0683","sub06","06","6","feedback","test","null","","","na","","230","",""
"836.5","532384","HierDyut8h0683","sub06","06","6","rl","test","72","img/o_t_check.png","5","72","pattern,shape,color","231","1",""
"null","533391","HierDyut8h0683","sub06","06","6","feedback","test","null","","","na","","231","",""
"402.6999999284744","533796","HierDyut8h0683","sub06","06","6","rl","test","74","img/r_t_check.png","6","74","pattern,shape,color","232","1",""
"null","534799","HierDyut8h0683","sub06","06","6","feedback","test","null","","","na","","232","",""
"766.1000000238419","535568","HierDyut8h0683","sub06","06","6","rl","test","65","img/r_t_stripes.png","2","83","pattern,shape,color","233","0",""
"null","536575","HierDyut8h0683","sub06","06","6","feedback","test","null","","","na","","233","",""
"929.1999999284744","537506","HierDyut8h0683","sub06","06","6","rl","test","70","img/r_s_stripes.png","4","70","pattern,shape,color","234","1",""
"null","538510","HierDyut8h0683","sub06","06","6","feedback","test","null","","","na","","234","",""
"650.0999999046326","539162","HierDyut8h0683","sub06","06","6","rl","test","76","img/o_s_check.png","7","75","pattern,shape,color","235","0",""
"null","540170","HierDyut8h0683","sub06","06","6","feedback","test","null","","","na","","235","",""
"1303.3999999761581","541475","HierDyut8h0683","sub06","06","6","rl","test","74","img/r_t_check.png","6","74","pattern,shape,color","236","1",""
"null","542479","HierDyut8h0683","sub06","06","6","feedback","test","null","","","na","","236","",""
"896.2999999523163","543377","HierDyut8h0683","sub06","06","6","rl","test","72","img/o_t_check.png","5","72","pattern,shape,color","237","1",""
"null","544381","HierDyut8h0683","sub06","06","6","feedback","test","null","","","na","","237","",""
"1048.8999999761581","545432","HierDyut8h0683","sub06","06","6","rl","test","74","img/r_t_check.png","6","74","pattern,shape,color","238","1",""
"null","546436","HierDyut8h0683","sub06","06","6","feedback","test","null","","","na","","238","",""
"1115.5","547554","HierDyut8h0683","sub06","06","6","rl","test","68","img/o_t_stripes.png","1","65","pattern,shape,color","239","0",""
"null","548561","HierDyut8h0683","sub06","06","6","feedback","test","null","","","na","","239","",""
"1066.8999999761581","549630","HierDyut8h0683","sub06","06","6","rl","test","75","img/r_s_check.png","8","76","pattern,shape,color","240","0",""
"null","550636","HierDyut8h0683","sub06","06","6","feedback","test","null","","","na","","240","",""
"973.7000000476837","551612","HierDyut8h0683","sub06","06","6","rl","test","83","img/r_t_stripes.png","2","83","pattern,shape,color","241","1",""
"null","552617","HierDyut8h0683","sub06","06","6","feedback","test","null","","","na","","241","",""
"960.3999999761581","553580","HierDyut8h0683","sub06","06","6","rl","test","68","img/r_t_stripes.png","2","83","pattern,shape,color","242","0",""
"null","554582","HierDyut8h0683","sub06","06","6","feedback","test","null","","","na","","242","",""
"891","555475","HierDyut8h0683","sub06","06","6","rl","test","76","img/r_s_check.png","8","76","pattern,shape,color","243","1",""
"null","556480","HierDyut8h0683","sub06","06","6","feedback","test","null","","","na","","243","",""
"1015","557497","HierDyut8h0683","sub06","06","6","rl","test","75","img/o_s_check.png","7","75","pattern,shape,color","244","1",""
"null","558503","HierDyut8h0683","sub06","06","6","feedback","test","null","","","na","","244","",""
"1007.2000000476837","559513","HierDyut8h0683","sub06","06","6","rl","test","68","img/o_s_stripes.png","3","68","pattern,shape,color","245","1",""
"null","560518","HierDyut8h0683","sub06","06","6","feedback","test","null","","","na","","245","",""
"1121.3999999761581","561642","HierDyut8h0683","sub06","06","6","rl","test","65","img/o_t_stripes.png","1","65","pattern,shape,color","246","1",""
"null","562648","HierDyut8h0683","sub06","06","6","feedback","test","null","","","na","","246","",""
"969.1000000238419","563619","HierDyut8h0683","sub06","06","6","rl","test","70","img/r_s_stripes.png","4","70","pattern,shape,color","247","1",""
"null","564623","HierDyut8h0683","sub06","06","6","feedback","test","null","","","na","","247","",""
"1723.5999999046326","566349","HierDyut8h0683","sub06","06","6","rl","test","74","img/o_t_check.png","5","72","pattern,shape,color","248","0",""
"null","567355","HierDyut8h0683","sub06","06","6","feedback","test","null","","","na","","248","",""
"1976.1000000238419","569339","HierDyut8h0683","sub06","06","6","","","","","","","","","","{""Q0"":""8""}"
"3649.100000023842","572992","HierDyut8h0683","sub06","06","6","","","","","","","","","","{""Q0"":""I remembered some of the shapes corresponding to the letter from yesterday""}"
"1134.1999999284744","574128","HierDyut8h0683","sub06","06","6","","","","","","","","","",""
