"rt","time_elapsed","subject","subID","group","day","trialType","phase","key_press","stim","stimNum","corrresp","hierarchy","trialNum","corr","responses"
"16125","16127","HierDyuxw4cdj3","sub23","11","04","","","","","","","","","",""
"","18631","HierDyuxw4cdj3","sub23","11","04","fullscreen","","","","","","","","",""
"1509","20141","HierDyuxw4cdj3","sub23","11","04","","prac","","","","","","","",""
"965.0000000000036","21109","HierDyuxw4cdj3","sub23","11","04","","","32","","","","","","",""
"1660","22770","HierDyuxw4cdj3","sub23","11","04","","prac","","","","","","","",""
"986.0000000000036","23759","HierDyuxw4cdj3","sub23","11","04","rl","test","83","img/o_c_diag.png","2","83","shape,color,pattern","1","1",""
"null","24762","HierDyuxw4cdj3","sub23","11","04","feedback","test","null","","","na","","1","",""
"820.9999999999964","25586","HierDyuxw4cdj3","sub23","11","04","rl","test","74","img/o_s_diag.png","6","74","shape,color,pattern","2","1",""
"null","26589","HierDyuxw4cdj3","sub23","11","04","feedback","test","null","","","na","","2","",""
"687","27279","HierDyuxw4cdj3","sub23","11","04","rl","test","72","img/o_s_dots.png","5","72","shape,color,pattern","3","1",""
"null","28282","HierDyuxw4cdj3","sub23","11","04","feedback","test","null","","","na","","3","",""
"669.9999999999964","28955","HierDyuxw4cdj3","sub23","11","04","rl","test","75","img/p_s_dots.png","7","75","shape,color,pattern","4","1",""
"null","29958","HierDyuxw4cdj3","sub23","11","04","feedback","test","null","","","na","","4","",""
"804.9999999999964","30765","HierDyuxw4cdj3","sub23","11","04","rl","test","83","img/p_c_diag.png","4","70","shape,color,pattern","5","0",""
"null","31768","HierDyuxw4cdj3","sub23","11","04","feedback","test","null","","","na","","5","",""
"994","32764","HierDyuxw4cdj3","sub23","11","04","rl","test","68","img/p_c_dots.png","3","68","shape,color,pattern","6","1",""
"null","33767","HierDyuxw4cdj3","sub23","11","04","feedback","test","null","","","na","","6","",""
"816","34585","HierDyuxw4cdj3","sub23","11","04","rl","test","65","img/o_c_dots.png","1","65","shape,color,pattern","7","1",""
"null","35587","HierDyuxw4cdj3","sub23","11","04","feedback","test","null","","","na","","7","",""
"931","36519","HierDyuxw4cdj3","sub23","11","04","rl","test","76","img/p_s_diag.png","8","76","shape,color,pattern","8","1",""
"null","37521","HierDyuxw4cdj3","sub23","11","04","feedback","test","null","","","na","","8","",""
"1011","38534","HierDyuxw4cdj3","sub23","11","04","rl","test","68","img/p_c_dots.png","3","68","shape,color,pattern","9","1",""
"null","39536","HierDyuxw4cdj3","sub23","11","04","feedback","test","null","","","na","","9","",""
"883","40420","HierDyuxw4cdj3","sub23","11","04","rl","test","76","img/p_s_diag.png","8","76","shape,color,pattern","10","1",""
"null","41423","HierDyuxw4cdj3","sub23","11","04","feedback","test","null","","","na","","10","",""
"791","42217","HierDyuxw4cdj3","sub23","11","04","rl","test","83","img/o_c_diag.png","2","83","shape,color,pattern","11","1",""
"null","43221","HierDyuxw4cdj3","sub23","11","04","feedback","test","null","","","na","","11","",""
"988","44210","HierDyuxw4cdj3","sub23","11","04","rl","test","72","img/o_s_dots.png","5","72","shape,color,pattern","12","1",""
"null","45213","HierDyuxw4cdj3","sub23","11","04","feedback","test","null","","","na","","12","",""
"1181","46396","HierDyuxw4cdj3","sub23","11","04","rl","test","74","img/o_s_diag.png","6","74","shape,color,pattern","13","1",""
"null","47398","HierDyuxw4cdj3","sub23","11","04","feedback","test","null","","","na","","13","",""
"793.0000000000073","48193","HierDyuxw4cdj3","sub23","11","04","rl","test","75","img/p_s_dots.png","7","75","shape,color,pattern","14","1",""
"null","49196","HierDyuxw4cdj3","sub23","11","04","feedback","test","null","","","na","","14","",""
"804","50002","HierDyuxw4cdj3","sub23","11","04","rl","test","65","img/o_c_dots.png","1","65","shape,color,pattern","15","1",""
"null","51004","HierDyuxw4cdj3","sub23","11","04","feedback","test","null","","","na","","15","",""
"556.0000000000073","51563","HierDyuxw4cdj3","sub23","11","04","rl","test","65","img/o_c_dots.png","1","65","shape,color,pattern","16","1",""
"null","52566","HierDyuxw4cdj3","sub23","11","04","feedback","test","null","","","na","","16","",""
"854","53422","HierDyuxw4cdj3","sub23","11","04","rl","test","70","img/p_c_diag.png","4","70","shape,color,pattern","17","1",""
"null","54424","HierDyuxw4cdj3","sub23","11","04","feedback","test","null","","","na","","17","",""
"861","55288","HierDyuxw4cdj3","sub23","11","04","rl","test","75","img/p_s_dots.png","7","75","shape,color,pattern","18","1",""
"null","56292","HierDyuxw4cdj3","sub23","11","04","feedback","test","null","","","na","","18","",""
"991","57286","HierDyuxw4cdj3","sub23","11","04","rl","test","83","img/o_s_diag.png","6","74","shape,color,pattern","19","0",""
"null","58289","HierDyuxw4cdj3","sub23","11","04","feedback","test","null","","","na","","19","",""
"759","59050","HierDyuxw4cdj3","sub23","11","04","rl","test","70","img/p_c_diag.png","4","70","shape,color,pattern","20","1",""
"null","60053","HierDyuxw4cdj3","sub23","11","04","feedback","test","null","","","na","","20","",""
"796","60852","HierDyuxw4cdj3","sub23","11","04","rl","test","75","img/p_c_dots.png","3","68","shape,color,pattern","21","0",""
"null","61855","HierDyuxw4cdj3","sub23","11","04","feedback","test","null","","","na","","21","",""
"780.9999999999927","62638","HierDyuxw4cdj3","sub23","11","04","rl","test","70","img/p_c_diag.png","4","70","shape,color,pattern","22","1",""
"null","63640","HierDyuxw4cdj3","sub23","11","04","feedback","test","null","","","na","","22","",""
"1140","64783","HierDyuxw4cdj3","sub23","11","04","rl","test","76","img/p_s_diag.png","8","76","shape,color,pattern","23","1",""
"null","65786","HierDyuxw4cdj3","sub23","11","04","feedback","test","null","","","na","","23","",""
"746","66534","HierDyuxw4cdj3","sub23","11","04","rl","test","83","img/o_c_diag.png","2","83","shape,color,pattern","24","1",""
"null","67538","HierDyuxw4cdj3","sub23","11","04","feedback","test","null","","","na","","24","",""
"820","68360","HierDyuxw4cdj3","sub23","11","04","rl","test","75","img/p_s_dots.png","7","75","shape,color,pattern","25","1",""
"null","69362","HierDyuxw4cdj3","sub23","11","04","feedback","test","null","","","na","","25","",""
"926","70290","HierDyuxw4cdj3","sub23","11","04","rl","test","72","img/o_s_dots.png","5","72","shape,color,pattern","26","1",""
"null","71293","HierDyuxw4cdj3","sub23","11","04","feedback","test","null","","","na","","26","",""
"656.9999999999854","71953","HierDyuxw4cdj3","sub23","11","04","rl","test","72","img/o_s_dots.png","5","72","shape,color,pattern","27","1",""
"null","72956","HierDyuxw4cdj3","sub23","11","04","feedback","test","null","","","na","","27","",""
"763","73722","HierDyuxw4cdj3","sub23","11","04","rl","test","76","img/p_s_diag.png","8","76","shape,color,pattern","28","1",""
"null","74726","HierDyuxw4cdj3","sub23","11","04","feedback","test","null","","","na","","28","",""
"1045","75773","HierDyuxw4cdj3","sub23","11","04","rl","test","68","img/p_c_dots.png","3","68","shape,color,pattern","29","1",""
"null","76776","HierDyuxw4cdj3","sub23","11","04","feedback","test","null","","","na","","29","",""
"859","77638","HierDyuxw4cdj3","sub23","11","04","rl","test","83","img/o_c_diag.png","2","83","shape,color,pattern","30","1",""
"null","78641","HierDyuxw4cdj3","sub23","11","04","feedback","test","null","","","na","","30","",""
"816","79458","HierDyuxw4cdj3","sub23","11","04","rl","test","65","img/o_c_dots.png","1","65","shape,color,pattern","31","1",""
"null","80461","HierDyuxw4cdj3","sub23","11","04","feedback","test","null","","","na","","31","",""
"1091.0000000000146","81554","HierDyuxw4cdj3","sub23","11","04","rl","test","74","img/o_s_diag.png","6","74","shape,color,pattern","32","1",""
"null","82556","HierDyuxw4cdj3","sub23","11","04","feedback","test","null","","","na","","32","",""
"629","83187","HierDyuxw4cdj3","sub23","11","04","rl","test","74","img/o_s_diag.png","6","74","shape,color,pattern","33","1",""
"null","84190","HierDyuxw4cdj3","sub23","11","04","feedback","test","null","","","na","","33","",""
"721","84913","HierDyuxw4cdj3","sub23","11","04","rl","test","70","img/p_c_diag.png","4","70","shape,color,pattern","34","1",""
"null","85916","HierDyuxw4cdj3","sub23","11","04","feedback","test","null","","","na","","34","",""
"930","86849","HierDyuxw4cdj3","sub23","11","04","rl","test","75","img/p_s_diag.png","8","76","shape,color,pattern","35","0",""
"null","87852","HierDyuxw4cdj3","sub23","11","04","feedback","test","null","","","na","","35","",""
"742","88596","HierDyuxw4cdj3","sub23","11","04","rl","test","72","img/o_s_dots.png","5","72","shape,color,pattern","36","1",""
"null","89599","HierDyuxw4cdj3","sub23","11","04","feedback","test","null","","","na","","36","",""
"689.0000000000146","90289","HierDyuxw4cdj3","sub23","11","04","rl","test","75","img/p_s_dots.png","7","75","shape,color,pattern","37","1",""
"null","91291","HierDyuxw4cdj3","sub23","11","04","feedback","test","null","","","na","","37","",""
"663","91957","HierDyuxw4cdj3","sub23","11","04","rl","test","72","img/o_s_dots.png","5","72","shape,color,pattern","38","1",""
"null","92959","HierDyuxw4cdj3","sub23","11","04","feedback","test","null","","","na","","38","",""
"698","93658","HierDyuxw4cdj3","sub23","11","04","rl","test","68","img/p_c_dots.png","3","68","shape,color,pattern","39","1",""
"null","94661","HierDyuxw4cdj3","sub23","11","04","feedback","test","null","","","na","","39","",""
"906.0000000000146","95568","HierDyuxw4cdj3","sub23","11","04","rl","test","76","img/p_s_diag.png","8","76","shape,color,pattern","40","1",""
"null","96571","HierDyuxw4cdj3","sub23","11","04","feedback","test","null","","","na","","40","",""
"694","97268","HierDyuxw4cdj3","sub23","11","04","rl","test","83","img/o_c_diag.png","2","83","shape,color,pattern","41","1",""
"null","98271","HierDyuxw4cdj3","sub23","11","04","feedback","test","null","","","na","","41","",""
"933","99206","HierDyuxw4cdj3","sub23","11","04","rl","test","68","img/p_c_dots.png","3","68","shape,color,pattern","42","1",""
"null","100209","HierDyuxw4cdj3","sub23","11","04","feedback","test","null","","","na","","42","",""
"514","100724","HierDyuxw4cdj3","sub23","11","04","rl","test","70","img/p_c_diag.png","4","70","shape,color,pattern","43","1",""
"null","101727","HierDyuxw4cdj3","sub23","11","04","feedback","test","null","","","na","","43","",""
"577.0000000000146","102307","HierDyuxw4cdj3","sub23","11","04","rl","test","65","img/o_c_dots.png","1","65","shape,color,pattern","44","1",""
"null","103310","HierDyuxw4cdj3","sub23","11","04","feedback","test","null","","","na","","44","",""
"584","103896","HierDyuxw4cdj3","sub23","11","04","rl","test","83","img/o_c_diag.png","2","83","shape,color,pattern","45","1",""
"null","104899","HierDyuxw4cdj3","sub23","11","04","feedback","test","null","","","na","","45","",""
"771","105672","HierDyuxw4cdj3","sub23","11","04","rl","test","72","img/o_s_dots.png","5","72","shape,color,pattern","46","1",""
"null","106674","HierDyuxw4cdj3","sub23","11","04","feedback","test","null","","","na","","46","",""
"702","107379","HierDyuxw4cdj3","sub23","11","04","rl","test","74","img/o_s_diag.png","6","74","shape,color,pattern","47","1",""
"null","108383","HierDyuxw4cdj3","sub23","11","04","feedback","test","null","","","na","","47","",""
"601","108986","HierDyuxw4cdj3","sub23","11","04","rl","test","72","img/o_c_dots.png","1","65","shape,color,pattern","48","0",""
"null","109990","HierDyuxw4cdj3","sub23","11","04","feedback","test","null","","","na","","48","",""
"719","110710","HierDyuxw4cdj3","sub23","11","04","rl","test","74","img/o_s_diag.png","6","74","shape,color,pattern","49","1",""
"null","111713","HierDyuxw4cdj3","sub23","11","04","feedback","test","null","","","na","","49","",""
"766","112482","HierDyuxw4cdj3","sub23","11","04","rl","test","76","img/p_s_diag.png","8","76","shape,color,pattern","50","1",""
"null","113484","HierDyuxw4cdj3","sub23","11","04","feedback","test","null","","","na","","50","",""
"693","114179","HierDyuxw4cdj3","sub23","11","04","rl","test","75","img/p_s_dots.png","7","75","shape,color,pattern","51","1",""
"null","115182","HierDyuxw4cdj3","sub23","11","04","feedback","test","null","","","na","","51","",""
"858.0000000000146","116041","HierDyuxw4cdj3","sub23","11","04","rl","test","83","img/o_c_diag.png","2","83","shape,color,pattern","52","1",""
"null","117044","HierDyuxw4cdj3","sub23","11","04","feedback","test","null","","","na","","52","",""
"802","117848","HierDyuxw4cdj3","sub23","11","04","rl","test","68","img/p_c_dots.png","3","68","shape,color,pattern","53","1",""
"null","118851","HierDyuxw4cdj3","sub23","11","04","feedback","test","null","","","na","","53","",""
"787","119640","HierDyuxw4cdj3","sub23","11","04","rl","test","75","img/p_s_dots.png","7","75","shape,color,pattern","54","1",""
"null","120643","HierDyuxw4cdj3","sub23","11","04","feedback","test","null","","","na","","54","",""
"1019","121664","HierDyuxw4cdj3","sub23","11","04","rl","test","74","img/o_s_diag.png","6","74","shape,color,pattern","55","1",""
"null","122667","HierDyuxw4cdj3","sub23","11","04","feedback","test","null","","","na","","55","",""
"1102","123771","HierDyuxw4cdj3","sub23","11","04","rl","test","70","img/p_c_diag.png","4","70","shape,color,pattern","56","1",""
"null","124772","HierDyuxw4cdj3","sub23","11","04","feedback","test","null","","","na","","56","",""
"1008.0000000000146","125782","HierDyuxw4cdj3","sub23","11","04","rl","test","70","img/p_c_diag.png","4","70","shape,color,pattern","57","1",""
"null","126785","HierDyuxw4cdj3","sub23","11","04","feedback","test","null","","","na","","57","",""
"704","127490","HierDyuxw4cdj3","sub23","11","04","rl","test","65","img/o_c_dots.png","1","65","shape,color,pattern","58","1",""
"null","128493","HierDyuxw4cdj3","sub23","11","04","feedback","test","null","","","na","","58","",""
"952","129446","HierDyuxw4cdj3","sub23","11","04","rl","test","75","img/p_s_dots.png","7","75","shape,color,pattern","59","1",""
"null","130448","HierDyuxw4cdj3","sub23","11","04","feedback","test","null","","","na","","59","",""
"960","131409","HierDyuxw4cdj3","sub23","11","04","rl","test","65","img/o_c_dots.png","1","65","shape,color,pattern","60","1",""
"null","132412","HierDyuxw4cdj3","sub23","11","04","feedback","test","null","","","na","","60","",""
"830","133244","HierDyuxw4cdj3","sub23","11","04","rl","test","72","img/o_s_dots.png","5","72","shape,color,pattern","61","1",""
"null","134246","HierDyuxw4cdj3","sub23","11","04","feedback","test","null","","","na","","61","",""
"764.9999999999709","135013","HierDyuxw4cdj3","sub23","11","04","rl","test","68","img/p_c_dots.png","3","68","shape,color,pattern","62","1",""
"null","136015","HierDyuxw4cdj3","sub23","11","04","feedback","test","null","","","na","","62","",""
"755.0000000000291","136772","HierDyuxw4cdj3","sub23","11","04","rl","test","83","img/o_c_diag.png","2","83","shape,color,pattern","63","1",""
"null","137775","HierDyuxw4cdj3","sub23","11","04","feedback","test","null","","","na","","63","",""
"853","138630","HierDyuxw4cdj3","sub23","11","04","rl","test","76","img/p_s_diag.png","8","76","shape,color,pattern","64","1",""
"null","139634","HierDyuxw4cdj3","sub23","11","04","feedback","test","null","","","na","","64","",""
"554","140190","HierDyuxw4cdj3","sub23","11","04","rl","test","76","img/p_s_diag.png","8","76","shape,color,pattern","65","1",""
"null","141193","HierDyuxw4cdj3","sub23","11","04","feedback","test","null","","","na","","65","",""
"795","141990","HierDyuxw4cdj3","sub23","11","04","rl","test","72","img/o_s_dots.png","5","72","shape,color,pattern","66","1",""
"null","142993","HierDyuxw4cdj3","sub23","11","04","feedback","test","null","","","na","","66","",""
"619","143614","HierDyuxw4cdj3","sub23","11","04","rl","test","72","img/o_s_diag.png","6","74","shape,color,pattern","67","0",""
"null","144616","HierDyuxw4cdj3","sub23","11","04","feedback","test","null","","","na","","67","",""
"709","145327","HierDyuxw4cdj3","sub23","11","04","rl","test","68","img/p_c_dots.png","3","68","shape,color,pattern","68","1",""
"null","146330","HierDyuxw4cdj3","sub23","11","04","feedback","test","null","","","na","","68","",""
"679","147011","HierDyuxw4cdj3","sub23","11","04","rl","test","68","img/p_s_dots.png","7","75","shape,color,pattern","69","0",""
"null","148015","HierDyuxw4cdj3","sub23","11","04","feedback","test","null","","","na","","69","",""
"640","148657","HierDyuxw4cdj3","sub23","11","04","rl","test","83","img/o_c_diag.png","2","83","shape,color,pattern","70","1",""
"null","149659","HierDyuxw4cdj3","sub23","11","04","feedback","test","null","","","na","","70","",""
"805","150467","HierDyuxw4cdj3","sub23","11","04","rl","test","68","img/p_c_dots.png","3","68","shape,color,pattern","71","1",""
"null","151471","HierDyuxw4cdj3","sub23","11","04","feedback","test","null","","","na","","71","",""
"604","152077","HierDyuxw4cdj3","sub23","11","04","rl","test","70","img/p_c_diag.png","4","70","shape,color,pattern","72","1",""
"null","153080","HierDyuxw4cdj3","sub23","11","04","feedback","test","null","","","na","","72","",""
"827.0000000000291","153909","HierDyuxw4cdj3","sub23","11","04","rl","test","75","img/p_s_dots.png","7","75","shape,color,pattern","73","1",""
"null","154912","HierDyuxw4cdj3","sub23","11","04","feedback","test","null","","","na","","73","",""
"660","155575","HierDyuxw4cdj3","sub23","11","04","rl","test","72","img/o_c_dots.png","1","65","shape,color,pattern","74","0",""
"null","156578","HierDyuxw4cdj3","sub23","11","04","feedback","test","null","","","na","","74","",""
"586","157167","HierDyuxw4cdj3","sub23","11","04","rl","test","74","img/o_s_diag.png","6","74","shape,color,pattern","75","1",""
"null","158170","HierDyuxw4cdj3","sub23","11","04","feedback","test","null","","","na","","75","",""
"800","158972","HierDyuxw4cdj3","sub23","11","04","rl","test","83","img/o_c_diag.png","2","83","shape,color,pattern","76","1",""
"null","159976","HierDyuxw4cdj3","sub23","11","04","feedback","test","null","","","na","","76","",""
"944","160922","HierDyuxw4cdj3","sub23","11","04","rl","test","70","img/p_c_diag.png","4","70","shape,color,pattern","77","1",""
"null","161924","HierDyuxw4cdj3","sub23","11","04","feedback","test","null","","","na","","77","",""
"677","162603","HierDyuxw4cdj3","sub23","11","04","rl","test","72","img/o_s_dots.png","5","72","shape,color,pattern","78","1",""
"null","163606","HierDyuxw4cdj3","sub23","11","04","feedback","test","null","","","na","","78","",""
"734.0000000000291","164343","HierDyuxw4cdj3","sub23","11","04","rl","test","76","img/p_s_diag.png","8","76","shape,color,pattern","79","1",""
"null","165345","HierDyuxw4cdj3","sub23","11","04","feedback","test","null","","","na","","79","",""
"785","166132","HierDyuxw4cdj3","sub23","11","04","rl","test","83","img/o_c_diag.png","2","83","shape,color,pattern","80","1",""
"null","167135","HierDyuxw4cdj3","sub23","11","04","feedback","test","null","","","na","","80","",""
"861","167999","HierDyuxw4cdj3","sub23","11","04","rl","test","65","img/o_c_dots.png","1","65","shape,color,pattern","81","1",""
"null","169003","HierDyuxw4cdj3","sub23","11","04","feedback","test","null","","","na","","81","",""
"1195","170200","HierDyuxw4cdj3","sub23","11","04","rl","test","75","img/p_s_dots.png","7","75","shape,color,pattern","82","1",""
"null","171203","HierDyuxw4cdj3","sub23","11","04","feedback","test","null","","","na","","82","",""
"1706","172911","HierDyuxw4cdj3","sub23","11","04","rl","test","65","img/o_c_dots.png","1","65","shape,color,pattern","83","1",""
"null","173913","HierDyuxw4cdj3","sub23","11","04","feedback","test","null","","","na","","83","",""
"920","174836","HierDyuxw4cdj3","sub23","11","04","rl","test","83","img/p_c_dots.png","3","68","shape,color,pattern","84","0",""
"null","175839","HierDyuxw4cdj3","sub23","11","04","feedback","test","null","","","na","","84","",""
"628","176470","HierDyuxw4cdj3","sub23","11","04","rl","test","70","img/p_c_diag.png","4","70","shape,color,pattern","85","1",""
"null","177472","HierDyuxw4cdj3","sub23","11","04","feedback","test","null","","","na","","85","",""
"1781","179256","HierDyuxw4cdj3","sub23","11","04","rl","test","74","img/o_s_diag.png","6","74","shape,color,pattern","86","1",""
"null","180259","HierDyuxw4cdj3","sub23","11","04","feedback","test","null","","","na","","86","",""
"952","181213","HierDyuxw4cdj3","sub23","11","04","rl","test","68","img/p_c_dots.png","3","68","shape,color,pattern","87","1",""
"null","182216","HierDyuxw4cdj3","sub23","11","04","feedback","test","null","","","na","","87","",""
"702.0000000000291","182920","HierDyuxw4cdj3","sub23","11","04","rl","test","72","img/o_s_dots.png","5","72","shape,color,pattern","88","1",""
"null","183923","HierDyuxw4cdj3","sub23","11","04","feedback","test","null","","","na","","88","",""
"580","184505","HierDyuxw4cdj3","sub23","11","04","rl","test","72","img/o_s_dots.png","5","72","shape,color,pattern","89","1",""
"null","185507","HierDyuxw4cdj3","sub23","11","04","feedback","test","null","","","na","","89","",""
"741","186250","HierDyuxw4cdj3","sub23","11","04","rl","test","76","img/p_s_diag.png","8","76","shape,color,pattern","90","1",""
"null","187253","HierDyuxw4cdj3","sub23","11","04","feedback","test","null","","","na","","90","",""
"1585","188840","HierDyuxw4cdj3","sub23","11","04","rl","test","74","img/o_s_diag.png","6","74","shape,color,pattern","91","1",""
"null","189843","HierDyuxw4cdj3","sub23","11","04","feedback","test","null","","","na","","91","",""
"1676.000000000029","191521","HierDyuxw4cdj3","sub23","11","04","rl","test","76","img/p_s_diag.png","8","76","shape,color,pattern","92","1",""
"null","192524","HierDyuxw4cdj3","sub23","11","04","feedback","test","null","","","na","","92","",""
"896","193422","HierDyuxw4cdj3","sub23","11","04","rl","test","83","img/o_c_diag.png","2","83","shape,color,pattern","93","1",""
"null","194425","HierDyuxw4cdj3","sub23","11","04","feedback","test","null","","","na","","93","",""
"1268","195695","HierDyuxw4cdj3","sub23","11","04","rl","test","75","img/p_s_dots.png","7","75","shape,color,pattern","94","1",""
"null","196699","HierDyuxw4cdj3","sub23","11","04","feedback","test","null","","","na","","94","",""
"741","197443","HierDyuxw4cdj3","sub23","11","04","rl","test","72","img/o_s_dots.png","5","72","shape,color,pattern","95","1",""
"null","198446","HierDyuxw4cdj3","sub23","11","04","feedback","test","null","","","na","","95","",""
"831","199279","HierDyuxw4cdj3","sub23","11","04","rl","test","76","img/p_s_diag.png","8","76","shape,color,pattern","96","1",""
"null","200282","HierDyuxw4cdj3","sub23","11","04","feedback","test","null","","","na","","96","",""
"1309.999999999971","201593","HierDyuxw4cdj3","sub23","11","04","rl","test","83","img/p_c_diag.png","4","70","shape,color,pattern","97","0",""
"null","202596","HierDyuxw4cdj3","sub23","11","04","feedback","test","null","","","na","","97","",""
"830.9999999999709","203429","HierDyuxw4cdj3","sub23","11","04","rl","test","72","img/o_c_dots.png","1","65","shape,color,pattern","98","0",""
"null","204432","HierDyuxw4cdj3","sub23","11","04","feedback","test","null","","","na","","98","",""
"624","205058","HierDyuxw4cdj3","sub23","11","04","rl","test","65","img/o_c_dots.png","1","65","shape,color,pattern","99","1",""
"null","206060","HierDyuxw4cdj3","sub23","11","04","feedback","test","null","","","na","","99","",""
"745.9999999999709","206809","HierDyuxw4cdj3","sub23","11","04","rl","test","70","img/p_c_diag.png","4","70","shape,color,pattern","100","1",""
"null","207812","HierDyuxw4cdj3","sub23","11","04","feedback","test","null","","","na","","100","",""
"717","208531","HierDyuxw4cdj3","sub23","11","04","rl","test","83","img/o_c_diag.png","2","83","shape,color,pattern","101","1",""
"null","209533","HierDyuxw4cdj3","sub23","11","04","feedback","test","null","","","na","","101","",""
"911","210447","HierDyuxw4cdj3","sub23","11","04","rl","test","68","img/p_c_dots.png","3","68","shape,color,pattern","102","1",""
"null","211450","HierDyuxw4cdj3","sub23","11","04","feedback","test","null","","","na","","102","",""
"833","212285","HierDyuxw4cdj3","sub23","11","04","rl","test","75","img/p_s_dots.png","7","75","shape,color,pattern","103","1",""
"null","213288","HierDyuxw4cdj3","sub23","11","04","feedback","test","null","","","na","","103","",""
"1093.000000000029","214384","HierDyuxw4cdj3","sub23","11","04","rl","test","74","img/o_s_diag.png","6","74","shape,color,pattern","104","1",""
"null","215387","HierDyuxw4cdj3","sub23","11","04","feedback","test","null","","","na","","104","",""
"664","216054","HierDyuxw4cdj3","sub23","11","04","rl","test","83","img/o_c_diag.png","2","83","shape,color,pattern","105","1",""
"null","217057","HierDyuxw4cdj3","sub23","11","04","feedback","test","null","","","na","","105","",""
"1094","218153","HierDyuxw4cdj3","sub23","11","04","rl","test","65","img/o_c_dots.png","1","65","shape,color,pattern","106","1",""
"null","219156","HierDyuxw4cdj3","sub23","11","04","feedback","test","null","","","na","","106","",""
"1155","220312","HierDyuxw4cdj3","sub23","11","04","rl","test","74","img/o_s_diag.png","6","74","shape,color,pattern","107","1",""
"null","221315","HierDyuxw4cdj3","sub23","11","04","feedback","test","null","","","na","","107","",""
"637","221954","HierDyuxw4cdj3","sub23","11","04","rl","test","75","img/p_s_dots.png","7","75","shape,color,pattern","108","1",""
"null","222957","HierDyuxw4cdj3","sub23","11","04","feedback","test","null","","","na","","108","",""
"1089","224048","HierDyuxw4cdj3","sub23","11","04","rl","test","74","img/o_s_dots.png","5","72","shape,color,pattern","109","0",""
"null","225051","HierDyuxw4cdj3","sub23","11","04","feedback","test","null","","","na","","109","",""
"913","225966","HierDyuxw4cdj3","sub23","11","04","rl","test","68","img/p_c_dots.png","3","68","shape,color,pattern","110","1",""
"null","226969","HierDyuxw4cdj3","sub23","11","04","feedback","test","null","","","na","","110","",""
"845","227815","HierDyuxw4cdj3","sub23","11","04","rl","test","76","img/p_s_diag.png","8","76","shape,color,pattern","111","1",""
"null","228817","HierDyuxw4cdj3","sub23","11","04","feedback","test","null","","","na","","111","",""
"912","229732","HierDyuxw4cdj3","sub23","11","04","rl","test","83","img/o_c_diag.png","2","83","shape,color,pattern","112","1",""
"null","230735","HierDyuxw4cdj3","sub23","11","04","feedback","test","null","","","na","","112","",""
"791","231529","HierDyuxw4cdj3","sub23","11","04","rl","test","76","img/p_s_diag.png","8","76","shape,color,pattern","113","1",""
"null","232532","HierDyuxw4cdj3","sub23","11","04","feedback","test","null","","","na","","113","",""
"864","233399","HierDyuxw4cdj3","sub23","11","04","rl","test","70","img/p_c_diag.png","4","70","shape,color,pattern","114","1",""
"null","234402","HierDyuxw4cdj3","sub23","11","04","feedback","test","null","","","na","","114","",""
"759.0000000000291","235164","HierDyuxw4cdj3","sub23","11","04","rl","test","70","img/p_c_diag.png","4","70","shape,color,pattern","115","1",""
"null","236167","HierDyuxw4cdj3","sub23","11","04","feedback","test","null","","","na","","115","",""
"1222.999999999971","237393","HierDyuxw4cdj3","sub23","11","04","rl","test","65","img/o_c_dots.png","1","65","shape,color,pattern","116","1",""
"null","238396","HierDyuxw4cdj3","sub23","11","04","feedback","test","null","","","na","","116","",""
"1324.000000000029","239723","HierDyuxw4cdj3","sub23","11","04","rl","test","75","img/p_s_dots.png","7","75","shape,color,pattern","117","1",""
"null","240726","HierDyuxw4cdj3","sub23","11","04","feedback","test","null","","","na","","117","",""
"808.9999999999709","241537","HierDyuxw4cdj3","sub23","11","04","rl","test","74","img/o_s_diag.png","6","74","shape,color,pattern","118","1",""
"null","242541","HierDyuxw4cdj3","sub23","11","04","feedback","test","null","","","na","","118","",""
"793","243335","HierDyuxw4cdj3","sub23","11","04","rl","test","76","img/p_s_diag.png","8","76","shape,color,pattern","119","1",""
"null","244338","HierDyuxw4cdj3","sub23","11","04","feedback","test","null","","","na","","119","",""
"660","245000","HierDyuxw4cdj3","sub23","11","04","rl","test","72","img/o_s_dots.png","5","72","shape,color,pattern","120","1",""
"null","246003","HierDyuxw4cdj3","sub23","11","04","feedback","test","null","","","na","","120","",""
"756","246762","HierDyuxw4cdj3","sub23","11","04","rl","test","75","img/p_s_dots.png","7","75","shape,color,pattern","121","1",""
"null","247764","HierDyuxw4cdj3","sub23","11","04","feedback","test","null","","","na","","121","",""
"1002","248769","HierDyuxw4cdj3","sub23","11","04","rl","test","68","img/p_c_dots.png","3","68","shape,color,pattern","122","1",""
"null","249773","HierDyuxw4cdj3","sub23","11","04","feedback","test","null","","","na","","122","",""
"756","250532","HierDyuxw4cdj3","sub23","11","04","rl","test","68","img/p_c_dots.png","3","68","shape,color,pattern","123","1",""
"null","251535","HierDyuxw4cdj3","sub23","11","04","feedback","test","null","","","na","","123","",""
"842","252379","HierDyuxw4cdj3","sub23","11","04","rl","test","65","img/o_c_dots.png","1","65","shape,color,pattern","124","1",""
"null","253382","HierDyuxw4cdj3","sub23","11","04","feedback","test","null","","","na","","124","",""
"656","254041","HierDyuxw4cdj3","sub23","11","04","rl","test","70","img/p_c_diag.png","4","70","shape,color,pattern","125","1",""
"null","255044","HierDyuxw4cdj3","sub23","11","04","feedback","test","null","","","na","","125","",""
"780.0000000000291","255825","HierDyuxw4cdj3","sub23","11","04","rl","test","74","img/o_s_diag.png","6","74","shape,color,pattern","126","1",""
"null","256828","HierDyuxw4cdj3","sub23","11","04","feedback","test","null","","","na","","126","",""
"680","257511","HierDyuxw4cdj3","sub23","11","04","rl","test","83","img/o_c_diag.png","2","83","shape,color,pattern","127","1",""
"null","258514","HierDyuxw4cdj3","sub23","11","04","feedback","test","null","","","na","","127","",""
"1208.000000000029","259724","HierDyuxw4cdj3","sub23","11","04","rl","test","74","img/o_s_diag.png","6","74","shape,color,pattern","128","1",""
"null","260727","HierDyuxw4cdj3","sub23","11","04","feedback","test","null","","","na","","128","",""
"749","261478","HierDyuxw4cdj3","sub23","11","04","rl","test","72","img/o_s_dots.png","5","72","shape,color,pattern","129","1",""
"null","262481","HierDyuxw4cdj3","sub23","11","04","feedback","test","null","","","na","","129","",""
"799","263282","HierDyuxw4cdj3","sub23","11","04","rl","test","70","img/p_c_diag.png","4","70","shape,color,pattern","130","1",""
"null","264285","HierDyuxw4cdj3","sub23","11","04","feedback","test","null","","","na","","130","",""
"915.0000000000582","265202","HierDyuxw4cdj3","sub23","11","04","rl","test","72","img/o_c_dots.png","1","65","shape,color,pattern","131","0",""
"null","266205","HierDyuxw4cdj3","sub23","11","04","feedback","test","null","","","na","","131","",""
"901","267108","HierDyuxw4cdj3","sub23","11","04","rl","test","76","img/p_s_diag.png","8","76","shape,color,pattern","132","1",""
"null","268112","HierDyuxw4cdj3","sub23","11","04","feedback","test","null","","","na","","132","",""
"1236","269350","HierDyuxw4cdj3","sub23","11","04","rl","test","83","img/o_c_diag.png","2","83","shape,color,pattern","133","1",""
"null","270353","HierDyuxw4cdj3","sub23","11","04","feedback","test","null","","","na","","133","",""
"770","271124","HierDyuxw4cdj3","sub23","11","04","rl","test","72","img/o_s_dots.png","5","72","shape,color,pattern","134","1",""
"null","272128","HierDyuxw4cdj3","sub23","11","04","feedback","test","null","","","na","","134","",""
"966.9999999999418","273097","HierDyuxw4cdj3","sub23","11","04","rl","test","76","img/p_s_diag.png","8","76","shape,color,pattern","135","1",""
"null","274100","HierDyuxw4cdj3","sub23","11","04","feedback","test","null","","","na","","135","",""
"1624.0000000000582","275726","HierDyuxw4cdj3","sub23","11","04","rl","test","74","img/p_s_dots.png","7","75","shape,color,pattern","136","0",""
"null","276729","HierDyuxw4cdj3","sub23","11","04","feedback","test","null","","","na","","136","",""
"781.9999999999418","277514","HierDyuxw4cdj3","sub23","11","04","rl","test","68","img/p_c_dots.png","3","68","shape,color,pattern","137","1",""
"null","278517","HierDyuxw4cdj3","sub23","11","04","feedback","test","null","","","na","","137","",""
"1210","279730","HierDyuxw4cdj3","sub23","11","04","rl","test","65","img/o_c_dots.png","1","65","shape,color,pattern","138","1",""
"null","280734","HierDyuxw4cdj3","sub23","11","04","feedback","test","null","","","na","","138","",""
"616","281353","HierDyuxw4cdj3","sub23","11","04","rl","test","70","img/p_c_diag.png","4","70","shape,color,pattern","139","1",""
"null","282356","HierDyuxw4cdj3","sub23","11","04","feedback","test","null","","","na","","139","",""
"2010","284369","HierDyuxw4cdj3","sub23","11","04","rl","test","74","img/o_s_diag.png","6","74","shape,color,pattern","140","1",""
"null","285372","HierDyuxw4cdj3","sub23","11","04","feedback","test","null","","","na","","140","",""
"713","286087","HierDyuxw4cdj3","sub23","11","04","rl","test","68","img/p_c_dots.png","3","68","shape,color,pattern","141","1",""
"null","287090","HierDyuxw4cdj3","sub23","11","04","feedback","test","null","","","na","","141","",""
"1692","288785","HierDyuxw4cdj3","sub23","11","04","rl","test","75","img/p_s_dots.png","7","75","shape,color,pattern","142","1",""
"null","289788","HierDyuxw4cdj3","sub23","11","04","feedback","test","null","","","na","","142","",""
"802","290591","HierDyuxw4cdj3","sub23","11","04","rl","test","83","img/o_c_diag.png","2","83","shape,color,pattern","143","1",""
"null","291594","HierDyuxw4cdj3","sub23","11","04","feedback","test","null","","","na","","143","",""
"1107","292704","HierDyuxw4cdj3","sub23","11","04","rl","test","75","img/p_s_dots.png","7","75","shape,color,pattern","144","1",""
"null","293707","HierDyuxw4cdj3","sub23","11","04","feedback","test","null","","","na","","144","",""
"997","294707","HierDyuxw4cdj3","sub23","11","04","rl","test","72","img/o_s_dots.png","5","72","shape,color,pattern","145","1",""
"null","295710","HierDyuxw4cdj3","sub23","11","04","feedback","test","null","","","na","","145","",""
"645","296357","HierDyuxw4cdj3","sub23","11","04","rl","test","72","img/o_s_dots.png","5","72","shape,color,pattern","146","1",""
"null","297360","HierDyuxw4cdj3","sub23","11","04","feedback","test","null","","","na","","146","",""
"567","297929","HierDyuxw4cdj3","sub23","11","04","rl","test","83","img/o_c_dots.png","1","65","shape,color,pattern","147","0",""
"null","298933","HierDyuxw4cdj3","sub23","11","04","feedback","test","null","","","na","","147","",""
"946","299881","HierDyuxw4cdj3","sub23","11","04","rl","test","76","img/p_s_diag.png","8","76","shape,color,pattern","148","1",""
"null","300885","HierDyuxw4cdj3","sub23","11","04","feedback","test","null","","","na","","148","",""
"934","301820","HierDyuxw4cdj3","sub23","11","04","rl","test","68","img/p_c_dots.png","3","68","shape,color,pattern","149","1",""
"null","302823","HierDyuxw4cdj3","sub23","11","04","feedback","test","null","","","na","","149","",""
"709","303534","HierDyuxw4cdj3","sub23","11","04","rl","test","83","img/o_c_diag.png","2","83","shape,color,pattern","150","1",""
"null","304537","HierDyuxw4cdj3","sub23","11","04","feedback","test","null","","","na","","150","",""
"659","305198","HierDyuxw4cdj3","sub23","11","04","rl","test","76","img/p_s_diag.png","8","76","shape,color,pattern","151","1",""
"null","306201","HierDyuxw4cdj3","sub23","11","04","feedback","test","null","","","na","","151","",""
"1489","307693","HierDyuxw4cdj3","sub23","11","04","rl","test","68","img/p_c_diag.png","4","70","shape,color,pattern","152","0",""
"null","308697","HierDyuxw4cdj3","sub23","11","04","feedback","test","null","","","na","","152","",""
"576","309276","HierDyuxw4cdj3","sub23","11","04","rl","test","70","img/p_c_diag.png","4","70","shape,color,pattern","153","1",""
"null","310279","HierDyuxw4cdj3","sub23","11","04","feedback","test","null","","","na","","153","",""
"1224.0000000000582","311504","HierDyuxw4cdj3","sub23","11","04","rl","test","74","img/o_s_diag.png","6","74","shape,color,pattern","154","1",""
"null","312508","HierDyuxw4cdj3","sub23","11","04","feedback","test","null","","","na","","154","",""
"923","313433","HierDyuxw4cdj3","sub23","11","04","rl","test","75","img/p_s_dots.png","7","75","shape,color,pattern","155","1",""
"null","314436","HierDyuxw4cdj3","sub23","11","04","feedback","test","null","","","na","","155","",""
"1327","315765","HierDyuxw4cdj3","sub23","11","04","rl","test","83","img/o_c_diag.png","2","83","shape,color,pattern","156","1",""
"null","316769","HierDyuxw4cdj3","sub23","11","04","feedback","test","null","","","na","","156","",""
"873","317644","HierDyuxw4cdj3","sub23","11","04","rl","test","65","img/o_c_dots.png","1","65","shape,color,pattern","157","1",""
"null","318647","HierDyuxw4cdj3","sub23","11","04","feedback","test","null","","","na","","157","",""
"1633","320282","HierDyuxw4cdj3","sub23","11","04","rl","test","74","img/o_s_diag.png","6","74","shape,color,pattern","158","1",""
"null","321285","HierDyuxw4cdj3","sub23","11","04","feedback","test","null","","","na","","158","",""
"1042","322329","HierDyuxw4cdj3","sub23","11","04","rl","test","65","img/o_c_dots.png","1","65","shape,color,pattern","159","1",""
"null","323332","HierDyuxw4cdj3","sub23","11","04","feedback","test","null","","","na","","159","",""
"1010","324345","HierDyuxw4cdj3","sub23","11","04","rl","test","68","img/p_c_dots.png","3","68","shape,color,pattern","160","1",""
"null","325347","HierDyuxw4cdj3","sub23","11","04","feedback","test","null","","","na","","160","",""
"761","326110","HierDyuxw4cdj3","sub23","11","04","rl","test","72","img/o_s_dots.png","5","72","shape,color,pattern","161","1",""
"null","327112","HierDyuxw4cdj3","sub23","11","04","feedback","test","null","","","na","","161","",""
"782","327897","HierDyuxw4cdj3","sub23","11","04","rl","test","83","img/o_c_diag.png","2","83","shape,color,pattern","162","1",""
"null","328899","HierDyuxw4cdj3","sub23","11","04","feedback","test","null","","","na","","162","",""
"1645","330547","HierDyuxw4cdj3","sub23","11","04","rl","test","75","img/p_c_dots.png","3","68","shape,color,pattern","163","0",""
"null","331549","HierDyuxw4cdj3","sub23","11","04","feedback","test","null","","","na","","163","",""
"666.9999999999418","332219","HierDyuxw4cdj3","sub23","11","04","rl","test","72","img/o_s_dots.png","5","72","shape,color,pattern","164","1",""
"null","333223","HierDyuxw4cdj3","sub23","11","04","feedback","test","null","","","na","","164","",""
"1638.9999999999418","334864","HierDyuxw4cdj3","sub23","11","04","rl","test","70","img/p_c_diag.png","4","70","shape,color,pattern","165","1",""
"null","335868","HierDyuxw4cdj3","sub23","11","04","feedback","test","null","","","na","","165","",""
"null","338371","HierDyuxw4cdj3","sub23","11","04","rl","test","null","img/p_s_diag.png","8","76","shape,color,pattern","166","0",""
"null","339375","HierDyuxw4cdj3","sub23","11","04","feedback","test","null","","","na","","166","",""
"915","340293","HierDyuxw4cdj3","sub23","11","04","rl","test","75","img/p_s_dots.png","7","75","shape,color,pattern","167","1",""
"null","341296","HierDyuxw4cdj3","sub23","11","04","feedback","test","null","","","na","","167","",""
"855","342154","HierDyuxw4cdj3","sub23","11","04","rl","test","74","img/o_s_diag.png","6","74","shape,color,pattern","168","1",""
"null","343158","HierDyuxw4cdj3","sub23","11","04","feedback","test","null","","","na","","168","",""
"644","343805","HierDyuxw4cdj3","sub23","11","04","rl","test","72","img/o_s_dots.png","5","72","shape,color,pattern","169","1",""
"null","344808","HierDyuxw4cdj3","sub23","11","04","feedback","test","null","","","na","","169","",""
"1773","346584","HierDyuxw4cdj3","sub23","11","04","rl","test","70","img/p_c_diag.png","4","70","shape,color,pattern","170","1",""
"null","347587","HierDyuxw4cdj3","sub23","11","04","feedback","test","null","","","na","","170","",""
"668","348258","HierDyuxw4cdj3","sub23","11","04","rl","test","75","img/p_s_dots.png","7","75","shape,color,pattern","171","1",""
"null","349260","HierDyuxw4cdj3","sub23","11","04","feedback","test","null","","","na","","171","",""
"838","350101","HierDyuxw4cdj3","sub23","11","04","rl","test","68","img/p_c_dots.png","3","68","shape,color,pattern","172","1",""
"null","351104","HierDyuxw4cdj3","sub23","11","04","feedback","test","null","","","na","","172","",""
"721","351828","HierDyuxw4cdj3","sub23","11","04","rl","test","75","img/p_s_dots.png","7","75","shape,color,pattern","173","1",""
"null","352831","HierDyuxw4cdj3","sub23","11","04","feedback","test","null","","","na","","173","",""
"855","353688","HierDyuxw4cdj3","sub23","11","04","rl","test","72","img/o_c_dots.png","1","65","shape,color,pattern","174","0",""
"null","354691","HierDyuxw4cdj3","sub23","11","04","feedback","test","null","","","na","","174","",""
"741","355434","HierDyuxw4cdj3","sub23","11","04","rl","test","83","img/o_c_diag.png","2","83","shape,color,pattern","175","1",""
"null","356436","HierDyuxw4cdj3","sub23","11","04","feedback","test","null","","","na","","175","",""
"978","357418","HierDyuxw4cdj3","sub23","11","04","rl","test","74","img/o_s_diag.png","6","74","shape,color,pattern","176","1",""
"null","358422","HierDyuxw4cdj3","sub23","11","04","feedback","test","null","","","na","","176","",""
"1122","359546","HierDyuxw4cdj3","sub23","11","04","rl","test","70","img/p_c_diag.png","4","70","shape,color,pattern","177","1",""
"null","360549","HierDyuxw4cdj3","sub23","11","04","feedback","test","null","","","na","","177","",""
"1090","361640","HierDyuxw4cdj3","sub23","11","04","rl","test","76","img/p_s_diag.png","8","76","shape,color,pattern","178","1",""
"null","362643","HierDyuxw4cdj3","sub23","11","04","feedback","test","null","","","na","","178","",""
"710","363356","HierDyuxw4cdj3","sub23","11","04","rl","test","76","img/p_s_diag.png","8","76","shape,color,pattern","179","1",""
"null","364359","HierDyuxw4cdj3","sub23","11","04","feedback","test","null","","","na","","179","",""
"677","365037","HierDyuxw4cdj3","sub23","11","04","rl","test","72","img/o_s_dots.png","5","72","shape,color,pattern","180","1",""
"null","366041","HierDyuxw4cdj3","sub23","11","04","feedback","test","null","","","na","","180","",""
"1139","367183","HierDyuxw4cdj3","sub23","11","04","rl","test","68","img/p_c_dots.png","3","68","shape,color,pattern","181","1",""
"null","368186","HierDyuxw4cdj3","sub23","11","04","feedback","test","null","","","na","","181","",""
"1117.9999999999418","369306","HierDyuxw4cdj3","sub23","11","04","rl","test","72","img/o_c_dots.png","1","65","shape,color,pattern","182","0",""
"null","370308","HierDyuxw4cdj3","sub23","11","04","feedback","test","null","","","na","","182","",""
"1231","371540","HierDyuxw4cdj3","sub23","11","04","rl","test","74","img/o_s_diag.png","6","74","shape,color,pattern","183","1",""
"null","372545","HierDyuxw4cdj3","sub23","11","04","feedback","test","null","","","na","","183","",""
"892","373440","HierDyuxw4cdj3","sub23","11","04","rl","test","83","img/o_c_diag.png","2","83","shape,color,pattern","184","1",""
"null","374443","HierDyuxw4cdj3","sub23","11","04","feedback","test","null","","","na","","184","",""
"1517.0000000000582","375963","HierDyuxw4cdj3","sub23","11","04","rl","test","74","img/o_s_diag.png","6","74","shape,color,pattern","185","1",""
"null","376967","HierDyuxw4cdj3","sub23","11","04","feedback","test","null","","","na","","185","",""
"961","377929","HierDyuxw4cdj3","sub23","11","04","rl","test","68","img/p_c_dots.png","3","68","shape,color,pattern","186","1",""
"null","378933","HierDyuxw4cdj3","sub23","11","04","feedback","test","null","","","na","","186","",""
"1995","380931","HierDyuxw4cdj3","sub23","11","04","rl","test","76","img/p_s_dots.png","7","75","shape,color,pattern","187","0",""
"null","381934","HierDyuxw4cdj3","sub23","11","04","feedback","test","null","","","na","","187","",""
"1226","383162","HierDyuxw4cdj3","sub23","11","04","rl","test","83","img/o_c_diag.png","2","83","shape,color,pattern","188","1",""
"null","384165","HierDyuxw4cdj3","sub23","11","04","feedback","test","null","","","na","","188","",""
"792","384960","HierDyuxw4cdj3","sub23","11","04","rl","test","76","img/p_s_diag.png","8","76","shape,color,pattern","189","1",""
"null","385964","HierDyuxw4cdj3","sub23","11","04","feedback","test","null","","","na","","189","",""
"1788","387755","HierDyuxw4cdj3","sub23","11","04","rl","test","70","img/p_c_diag.png","4","70","shape,color,pattern","190","1",""
"null","388758","HierDyuxw4cdj3","sub23","11","04","feedback","test","null","","","na","","190","",""
"637","389397","HierDyuxw4cdj3","sub23","11","04","rl","test","72","img/o_s_dots.png","5","72","shape,color,pattern","191","1",""
"null","390400","HierDyuxw4cdj3","sub23","11","04","feedback","test","null","","","na","","191","",""
"923.9999999999418","391326","HierDyuxw4cdj3","sub23","11","04","rl","test","72","img/o_s_dots.png","5","72","shape,color,pattern","192","1",""
"null","392329","HierDyuxw4cdj3","sub23","11","04","feedback","test","null","","","na","","192","",""
"642","392973","HierDyuxw4cdj3","sub23","11","04","rl","test","70","img/p_c_diag.png","4","70","shape,color,pattern","193","1",""
"null","393976","HierDyuxw4cdj3","sub23","11","04","feedback","test","null","","","na","","193","",""
"687.9999999999418","394667","HierDyuxw4cdj3","sub23","11","04","rl","test","65","img/o_c_dots.png","1","65","shape,color,pattern","194","1",""
"null","395670","HierDyuxw4cdj3","sub23","11","04","feedback","test","null","","","na","","194","",""
"1020","396692","HierDyuxw4cdj3","sub23","11","04","rl","test","76","img/p_s_diag.png","8","76","shape,color,pattern","195","1",""
"null","397695","HierDyuxw4cdj3","sub23","11","04","feedback","test","null","","","na","","195","",""
"1239","398936","HierDyuxw4cdj3","sub23","11","04","rl","test","68","img/p_c_dots.png","3","68","shape,color,pattern","196","1",""
"null","399940","HierDyuxw4cdj3","sub23","11","04","feedback","test","null","","","na","","196","",""
"1247.0000000000582","401188","HierDyuxw4cdj3","sub23","11","04","rl","test","65","img/o_c_dots.png","1","65","shape,color,pattern","197","1",""
"null","402192","HierDyuxw4cdj3","sub23","11","04","feedback","test","null","","","na","","197","",""
"913","403107","HierDyuxw4cdj3","sub23","11","04","rl","test","83","img/o_s_diag.png","6","74","shape,color,pattern","198","0",""
"null","404111","HierDyuxw4cdj3","sub23","11","04","feedback","test","null","","","na","","198","",""
"1075.0000000000582","405189","HierDyuxw4cdj3","sub23","11","04","rl","test","83","img/o_c_diag.png","2","83","shape,color,pattern","199","1",""
"null","406192","HierDyuxw4cdj3","sub23","11","04","feedback","test","null","","","na","","199","",""
"706","406900","HierDyuxw4cdj3","sub23","11","04","rl","test","83","img/o_c_diag.png","2","83","shape,color,pattern","200","1",""
"null","407903","HierDyuxw4cdj3","sub23","11","04","feedback","test","null","","","na","","200","",""
"933","408838","HierDyuxw4cdj3","sub23","11","04","rl","test","75","img/p_s_dots.png","7","75","shape,color,pattern","201","1",""
"null","409841","HierDyuxw4cdj3","sub23","11","04","feedback","test","null","","","na","","201","",""
"644","410486","HierDyuxw4cdj3","sub23","11","04","rl","test","76","img/p_s_diag.png","8","76","shape,color,pattern","202","1",""
"null","411488","HierDyuxw4cdj3","sub23","11","04","feedback","test","null","","","na","","202","",""
"870","412360","HierDyuxw4cdj3","sub23","11","04","rl","test","75","img/p_s_dots.png","7","75","shape,color,pattern","203","1",""
"null","413362","HierDyuxw4cdj3","sub23","11","04","feedback","test","null","","","na","","203","",""
"873","414238","HierDyuxw4cdj3","sub23","11","04","rl","test","68","img/p_c_dots.png","3","68","shape,color,pattern","204","1",""
"null","415241","HierDyuxw4cdj3","sub23","11","04","feedback","test","null","","","na","","204","",""
"1393","416636","HierDyuxw4cdj3","sub23","11","04","rl","test","83","img/o_s_diag.png","6","74","shape,color,pattern","205","0",""
"null","417640","HierDyuxw4cdj3","sub23","11","04","feedback","test","null","","","na","","205","",""
"683.0000000000582","418324","HierDyuxw4cdj3","sub23","11","04","rl","test","72","img/o_s_dots.png","5","72","shape,color,pattern","206","1",""
"null","419327","HierDyuxw4cdj3","sub23","11","04","feedback","test","null","","","na","","206","",""
"972","420302","HierDyuxw4cdj3","sub23","11","04","rl","test","75","img/p_s_dots.png","7","75","shape,color,pattern","207","1",""
"null","421304","HierDyuxw4cdj3","sub23","11","04","feedback","test","null","","","na","","207","",""
"693","422000","HierDyuxw4cdj3","sub23","11","04","rl","test","70","img/p_c_diag.png","4","70","shape,color,pattern","208","1",""
"null","423003","HierDyuxw4cdj3","sub23","11","04","feedback","test","null","","","na","","208","",""
"1116","424122","HierDyuxw4cdj3","sub23","11","04","rl","test","70","img/p_c_diag.png","4","70","shape,color,pattern","209","1",""
"null","425125","HierDyuxw4cdj3","sub23","11","04","feedback","test","null","","","na","","209","",""
"695.9999999999418","425824","HierDyuxw4cdj3","sub23","11","04","rl","test","72","img/o_c_dots.png","1","65","shape,color,pattern","210","0",""
"null","426828","HierDyuxw4cdj3","sub23","11","04","feedback","test","null","","","na","","210","",""
"956","427786","HierDyuxw4cdj3","sub23","11","04","rl","test","72","img/o_s_dots.png","5","72","shape,color,pattern","211","1",""
"null","428789","HierDyuxw4cdj3","sub23","11","04","feedback","test","null","","","na","","211","",""
"1302","430093","HierDyuxw4cdj3","sub23","11","04","rl","test","83","img/o_c_diag.png","2","83","shape,color,pattern","212","1",""
"null","431095","HierDyuxw4cdj3","sub23","11","04","feedback","test","null","","","na","","212","",""
"1626.0000000000582","432723","HierDyuxw4cdj3","sub23","11","04","rl","test","74","img/o_s_diag.png","6","74","shape,color,pattern","213","1",""
"null","433727","HierDyuxw4cdj3","sub23","11","04","feedback","test","null","","","na","","213","",""
"1023.0000000000582","434752","HierDyuxw4cdj3","sub23","11","04","rl","test","65","img/o_c_dots.png","1","65","shape,color,pattern","214","1",""
"null","435756","HierDyuxw4cdj3","sub23","11","04","feedback","test","null","","","na","","214","",""
"698","436457","HierDyuxw4cdj3","sub23","11","04","rl","test","70","img/p_c_diag.png","4","70","shape,color,pattern","215","1",""
"null","437460","HierDyuxw4cdj3","sub23","11","04","feedback","test","null","","","na","","215","",""
"1940","439402","HierDyuxw4cdj3","sub23","11","04","rl","test","74","img/p_s_diag.png","8","76","shape,color,pattern","216","0",""
"null","440405","HierDyuxw4cdj3","sub23","11","04","feedback","test","null","","","na","","216","",""
"975","441383","HierDyuxw4cdj3","sub23","11","04","rl","test","68","img/p_c_dots.png","3","68","shape,color,pattern","217","1",""
"null","442386","HierDyuxw4cdj3","sub23","11","04","feedback","test","null","","","na","","217","",""
"1344","443732","HierDyuxw4cdj3","sub23","11","04","rl","test","76","img/p_s_diag.png","8","76","shape,color,pattern","218","1",""
"null","444736","HierDyuxw4cdj3","sub23","11","04","feedback","test","null","","","na","","218","",""
"837","445575","HierDyuxw4cdj3","sub23","11","04","rl","test","65","img/o_c_dots.png","1","65","shape,color,pattern","219","1",""
"null","446578","HierDyuxw4cdj3","sub23","11","04","feedback","test","null","","","na","","219","",""
"660.0000000000582","447241","HierDyuxw4cdj3","sub23","11","04","rl","test","72","img/o_s_dots.png","5","72","shape,color,pattern","220","1",""
"null","448244","HierDyuxw4cdj3","sub23","11","04","feedback","test","null","","","na","","220","",""
"885","449131","HierDyuxw4cdj3","sub23","11","04","rl","test","68","img/p_c_dots.png","3","68","shape,color,pattern","221","1",""
"null","450135","HierDyuxw4cdj3","sub23","11","04","feedback","test","null","","","na","","221","",""
"1168","451305","HierDyuxw4cdj3","sub23","11","04","rl","test","75","img/p_s_dots.png","7","75","shape,color,pattern","222","1",""
"null","452309","HierDyuxw4cdj3","sub23","11","04","feedback","test","null","","","na","","222","",""
"1679.9999999999418","453992","HierDyuxw4cdj3","sub23","11","04","rl","test","74","img/o_s_diag.png","6","74","shape,color,pattern","223","1",""
"null","454996","HierDyuxw4cdj3","sub23","11","04","feedback","test","null","","","na","","223","",""
"1095","456094","HierDyuxw4cdj3","sub23","11","04","rl","test","68","img/p_c_dots.png","3","68","shape,color,pattern","224","1",""
"null","457098","HierDyuxw4cdj3","sub23","11","04","feedback","test","null","","","na","","224","",""
"822","457922","HierDyuxw4cdj3","sub23","11","04","rl","test","65","img/o_c_dots.png","1","65","shape,color,pattern","225","1",""
"null","458925","HierDyuxw4cdj3","sub23","11","04","feedback","test","null","","","na","","225","",""
"652","459580","HierDyuxw4cdj3","sub23","11","04","rl","test","83","img/o_c_diag.png","2","83","shape,color,pattern","226","1",""
"null","460583","HierDyuxw4cdj3","sub23","11","04","feedback","test","null","","","na","","226","",""
"695","461279","HierDyuxw4cdj3","sub23","11","04","rl","test","70","img/p_c_diag.png","4","70","shape,color,pattern","227","1",""
"null","462283","HierDyuxw4cdj3","sub23","11","04","feedback","test","null","","","na","","227","",""
"935","463220","HierDyuxw4cdj3","sub23","11","04","rl","test","72","img/o_s_dots.png","5","72","shape,color,pattern","228","1",""
"null","464223","HierDyuxw4cdj3","sub23","11","04","feedback","test","null","","","na","","228","",""
"930","465154","HierDyuxw4cdj3","sub23","11","04","rl","test","75","img/p_s_dots.png","7","75","shape,color,pattern","229","1",""
"null","466157","HierDyuxw4cdj3","sub23","11","04","feedback","test","null","","","na","","229","",""
"738","466897","HierDyuxw4cdj3","sub23","11","04","rl","test","72","img/o_s_dots.png","5","72","shape,color,pattern","230","1",""
"null","467901","HierDyuxw4cdj3","sub23","11","04","feedback","test","null","","","na","","230","",""
"768","468672","HierDyuxw4cdj3","sub23","11","04","rl","test","83","img/o_c_diag.png","2","83","shape,color,pattern","231","1",""
"null","469675","HierDyuxw4cdj3","sub23","11","04","feedback","test","null","","","na","","231","",""
"1502","471180","HierDyuxw4cdj3","sub23","11","04","rl","test","74","img/o_s_diag.png","6","74","shape,color,pattern","232","1",""
"null","472183","HierDyuxw4cdj3","sub23","11","04","feedback","test","null","","","na","","232","",""
"859","473043","HierDyuxw4cdj3","sub23","11","04","rl","test","76","img/p_s_diag.png","8","76","shape,color,pattern","233","1",""
"null","474046","HierDyuxw4cdj3","sub23","11","04","feedback","test","null","","","na","","233","",""
"669","474717","HierDyuxw4cdj3","sub23","11","04","rl","test","76","img/p_s_diag.png","8","76","shape,color,pattern","234","1",""
"null","475720","HierDyuxw4cdj3","sub23","11","04","feedback","test","null","","","na","","234","",""
"752","476474","HierDyuxw4cdj3","sub23","11","04","rl","test","75","img/p_s_dots.png","7","75","shape,color,pattern","235","1",""
"null","477478","HierDyuxw4cdj3","sub23","11","04","feedback","test","null","","","na","","235","",""
"772.0000000000582","478252","HierDyuxw4cdj3","sub23","11","04","rl","test","65","img/o_c_dots.png","1","65","shape,color,pattern","236","1",""
"null","479254","HierDyuxw4cdj3","sub23","11","04","feedback","test","null","","","na","","236","",""
"682","479939","HierDyuxw4cdj3","sub23","11","04","rl","test","70","img/p_c_diag.png","4","70","shape,color,pattern","237","1",""
"null","480942","HierDyuxw4cdj3","sub23","11","04","feedback","test","null","","","na","","237","",""
"794.9999999999418","481739","HierDyuxw4cdj3","sub23","11","04","rl","test","75","img/p_s_dots.png","7","75","shape,color,pattern","238","1",""
"null","482741","HierDyuxw4cdj3","sub23","11","04","feedback","test","null","","","na","","238","",""
"561","483304","HierDyuxw4cdj3","sub23","11","04","rl","test","75","img/p_c_dots.png","3","68","shape,color,pattern","239","0",""
"null","484308","HierDyuxw4cdj3","sub23","11","04","feedback","test","null","","","na","","239","",""
"1550","485861","HierDyuxw4cdj3","sub23","11","04","rl","test","74","img/o_s_diag.png","6","74","shape,color,pattern","240","1",""
"null","486865","HierDyuxw4cdj3","sub23","11","04","feedback","test","null","","","na","","240","",""
"888","487755","HierDyuxw4cdj3","sub23","11","04","rl","test","83","img/o_c_diag.png","2","83","shape,color,pattern","241","1",""
"null","488759","HierDyuxw4cdj3","sub23","11","04","feedback","test","null","","","na","","241","",""
"1082","489844","HierDyuxw4cdj3","sub23","11","04","rl","test","68","img/p_c_dots.png","3","68","shape,color,pattern","242","1",""
"null","490848","HierDyuxw4cdj3","sub23","11","04","feedback","test","null","","","na","","242","",""
"671","491522","HierDyuxw4cdj3","sub23","11","04","rl","test","65","img/o_c_dots.png","1","65","shape,color,pattern","243","1",""
"null","492526","HierDyuxw4cdj3","sub23","11","04","feedback","test","null","","","na","","243","",""
"1011","493538","HierDyuxw4cdj3","sub23","11","04","rl","test","74","img/o_s_diag.png","6","74","shape,color,pattern","244","1",""
"null","494542","HierDyuxw4cdj3","sub23","11","04","feedback","test","null","","","na","","244","",""
"1351.9999999999418","495897","HierDyuxw4cdj3","sub23","11","04","rl","test","72","img/o_s_dots.png","5","72","shape,color,pattern","245","1",""
"null","496900","HierDyuxw4cdj3","sub23","11","04","feedback","test","null","","","na","","245","",""
"791.0000000000582","497693","HierDyuxw4cdj3","sub23","11","04","rl","test","83","img/o_c_diag.png","2","83","shape,color,pattern","246","1",""
"null","498697","HierDyuxw4cdj3","sub23","11","04","feedback","test","null","","","na","","246","",""
"1705","500404","HierDyuxw4cdj3","sub23","11","04","rl","test","76","img/p_s_diag.png","8","76","shape,color,pattern","247","1",""
"null","501407","HierDyuxw4cdj3","sub23","11","04","feedback","test","null","","","na","","247","",""
"1205.0000000000582","502614","HierDyuxw4cdj3","sub23","11","04","rl","test","70","img/p_c_diag.png","4","70","shape,color,pattern","248","1",""
"null","503618","HierDyuxw4cdj3","sub23","11","04","feedback","test","null","","","na","","248","",""
"17927.00000000006","521580","HierDyuxw4cdj3","sub23","11","04","","","","","","","","","","{""Q0"":""6.7""}"
"3158","524748","HierDyuxw4cdj3","sub23","11","04","","","","","","","","","","{""Q0"":""None""}"
"3313","528062","HierDyuxw4cdj3","sub23","11","04","","","","","","","","","",""
