"rt","time_elapsed","subject","subID","group","day","trialType","phase","key_press","stim","stimNum","corrresp","hierarchy","trialNum","corr","responses"
"7806.9000000059605","7809","HierDy5cpq4rca","sub13","01","05","","","","","","","","","",""
"","11156","HierDy5cpq4rca","sub13","01","05","fullscreen","","","","","","","","",""
"4280.4000000059605","15437","HierDy5cpq4rca","sub13","01","05","","prac","","","","","","","",""
"47827","63267","HierDy5cpq4rca","sub13","01","05","","","32","","","","","","",""
"3395.199999988079","66663","HierDy5cpq4rca","sub13","01","05","","prac","","","","","","","",""
"1183","67848","HierDy5cpq4rca","sub13","01","05","rl","test","75","img/b_s_stripes.png","4","70","color,shape,pattern","1","0",""
"null","68855","HierDy5cpq4rca","sub13","01","05","feedback","test","null","","","na","","1","",""
"990.6999999880791","69848","HierDy5cpq4rca","sub13","01","05","rl","test","74","img/r_c_stripes.png","6","74","color,shape,pattern","2","1",""
"null","70865","HierDy5cpq4rca","sub13","01","05","feedback","test","null","","","na","","2","",""
"593.0999999940395","71460","HierDy5cpq4rca","sub13","01","05","rl","test","72","img/r_c_dots.png","5","72","color,shape,pattern","3","1",""
"null","72467","HierDy5cpq4rca","sub13","01","05","feedback","test","null","","","na","","3","",""
"1017.5","73486","HierDy5cpq4rca","sub13","01","05","rl","test","83","img/b_c_stripes.png","2","83","color,shape,pattern","4","1",""
"null","74496","HierDy5cpq4rca","sub13","01","05","feedback","test","null","","","na","","4","",""
"583.9000000059605","75081","HierDy5cpq4rca","sub13","01","05","rl","test","65","img/b_c_dots.png","1","65","color,shape,pattern","5","1",""
"null","76095","HierDy5cpq4rca","sub13","01","05","feedback","test","null","","","na","","5","",""
"1466.7999999821186","77563","HierDy5cpq4rca","sub13","01","05","rl","test","75","img/r_s_dots.png","7","75","color,shape,pattern","6","1",""
"null","78586","HierDy5cpq4rca","sub13","01","05","feedback","test","null","","","na","","6","",""
"891.0999999940395","79478","HierDy5cpq4rca","sub13","01","05","rl","test","83","img/b_c_stripes.png","2","83","color,shape,pattern","7","1",""
"null","80505","HierDy5cpq4rca","sub13","01","05","feedback","test","null","","","na","","7","",""
"1131.2000000178814","81638","HierDy5cpq4rca","sub13","01","05","rl","test","68","img/b_s_dots.png","3","68","color,shape,pattern","8","1",""
"null","82656","HierDy5cpq4rca","sub13","01","05","feedback","test","null","","","na","","8","",""
"642.5","83299","HierDy5cpq4rca","sub13","01","05","rl","test","76","img/r_s_stripes.png","8","76","color,shape,pattern","9","1",""
"null","84315","HierDy5cpq4rca","sub13","01","05","feedback","test","null","","","na","","9","",""
"550.8000000119209","84867","HierDy5cpq4rca","sub13","01","05","rl","test","76","img/r_s_stripes.png","8","76","color,shape,pattern","10","1",""
"null","85875","HierDy5cpq4rca","sub13","01","05","feedback","test","null","","","na","","10","",""
"875.2999999821186","86752","HierDy5cpq4rca","sub13","01","05","rl","test","72","img/r_c_dots.png","5","72","color,shape,pattern","11","1",""
"null","87766","HierDy5cpq4rca","sub13","01","05","feedback","test","null","","","na","","11","",""
"893.9000000059605","88661","HierDy5cpq4rca","sub13","01","05","rl","test","70","img/b_s_stripes.png","4","70","color,shape,pattern","12","1",""
"null","89672","HierDy5cpq4rca","sub13","01","05","feedback","test","null","","","na","","12","",""
"534.5","90207","HierDy5cpq4rca","sub13","01","05","rl","test","68","img/b_s_dots.png","3","68","color,shape,pattern","13","1",""
"null","91226","HierDy5cpq4rca","sub13","01","05","feedback","test","null","","","na","","13","",""
"1075.4000000059605","92303","HierDy5cpq4rca","sub13","01","05","rl","test","75","img/r_s_dots.png","7","75","color,shape,pattern","14","1",""
"null","93326","HierDy5cpq4rca","sub13","01","05","feedback","test","null","","","na","","14","",""
"1145.9000000059605","94473","HierDy5cpq4rca","sub13","01","05","rl","test","74","img/r_c_stripes.png","6","74","color,shape,pattern","15","1",""
"null","95495","HierDy5cpq4rca","sub13","01","05","feedback","test","null","","","na","","15","",""
"709.7999999821186","96207","HierDy5cpq4rca","sub13","01","05","rl","test","65","img/b_c_dots.png","1","65","color,shape,pattern","16","1",""
"null","97216","HierDy5cpq4rca","sub13","01","05","feedback","test","null","","","na","","16","",""
"1897","99114","HierDy5cpq4rca","sub13","01","05","rl","test","74","img/r_c_stripes.png","6","74","color,shape,pattern","17","1",""
"null","100136","HierDy5cpq4rca","sub13","01","05","feedback","test","null","","","na","","17","",""
"786.9000000059605","100924","HierDy5cpq4rca","sub13","01","05","rl","test","70","img/b_s_stripes.png","4","70","color,shape,pattern","18","1",""
"null","101946","HierDy5cpq4rca","sub13","01","05","feedback","test","null","","","na","","18","",""
"1493","103440","HierDy5cpq4rca","sub13","01","05","rl","test","83","img/b_c_stripes.png","2","83","color,shape,pattern","19","1",""
"null","104465","HierDy5cpq4rca","sub13","01","05","feedback","test","null","","","na","","19","",""
"978.5999999940395","105446","HierDy5cpq4rca","sub13","01","05","rl","test","65","img/b_c_dots.png","1","65","color,shape,pattern","20","1",""
"null","106468","HierDy5cpq4rca","sub13","01","05","feedback","test","null","","","na","","20","",""
"618.8000000119209","107088","HierDy5cpq4rca","sub13","01","05","rl","test","72","img/r_c_dots.png","5","72","color,shape,pattern","21","1",""
"null","108095","HierDy5cpq4rca","sub13","01","05","feedback","test","null","","","na","","21","",""
"1408.2999999821186","109505","HierDy5cpq4rca","sub13","01","05","rl","test","68","img/b_s_dots.png","3","68","color,shape,pattern","22","1",""
"null","110526","HierDy5cpq4rca","sub13","01","05","feedback","test","null","","","na","","22","",""
"994.8999999761581","111522","HierDy5cpq4rca","sub13","01","05","rl","test","75","img/r_s_dots.png","7","75","color,shape,pattern","23","1",""
"null","112528","HierDy5cpq4rca","sub13","01","05","feedback","test","null","","","na","","23","",""
"455.89999997615814","112985","HierDy5cpq4rca","sub13","01","05","rl","test","76","img/r_s_stripes.png","8","76","color,shape,pattern","24","1",""
"null","114005","HierDy5cpq4rca","sub13","01","05","feedback","test","null","","","na","","24","",""
"415.69999998807907","114422","HierDy5cpq4rca","sub13","01","05","rl","test","76","img/r_s_stripes.png","8","76","color,shape,pattern","25","1",""
"null","115446","HierDy5cpq4rca","sub13","01","05","feedback","test","null","","","na","","25","",""
"2260.7999999821186","117708","HierDy5cpq4rca","sub13","01","05","rl","test","83","img/b_c_stripes.png","2","83","color,shape,pattern","26","1",""
"null","118715","HierDy5cpq4rca","sub13","01","05","feedback","test","null","","","na","","26","",""
"718.3000000119209","119436","HierDy5cpq4rca","sub13","01","05","rl","test","76","img/r_s_stripes.png","8","76","color,shape,pattern","27","1",""
"null","120456","HierDy5cpq4rca","sub13","01","05","feedback","test","null","","","na","","27","",""
"606.6999999880791","121064","HierDy5cpq4rca","sub13","01","05","rl","test","68","img/b_s_dots.png","3","68","color,shape,pattern","28","1",""
"null","122076","HierDy5cpq4rca","sub13","01","05","feedback","test","null","","","na","","28","",""
"650","122727","HierDy5cpq4rca","sub13","01","05","rl","test","70","img/b_s_stripes.png","4","70","color,shape,pattern","29","1",""
"null","123748","HierDy5cpq4rca","sub13","01","05","feedback","test","null","","","na","","29","",""
"666.6999999880791","124416","HierDy5cpq4rca","sub13","01","05","rl","test","75","img/r_s_dots.png","7","75","color,shape,pattern","30","1",""
"null","125426","HierDy5cpq4rca","sub13","01","05","feedback","test","null","","","na","","30","",""
"751.0999999940395","126178","HierDy5cpq4rca","sub13","01","05","rl","test","74","img/r_c_stripes.png","6","74","color,shape,pattern","31","1",""
"null","127186","HierDy5cpq4rca","sub13","01","05","feedback","test","null","","","na","","31","",""
"1207.4000000059605","128394","HierDy5cpq4rca","sub13","01","05","rl","test","65","img/b_c_dots.png","1","65","color,shape,pattern","32","1",""
"null","129406","HierDy5cpq4rca","sub13","01","05","feedback","test","null","","","na","","32","",""
"850","130258","HierDy5cpq4rca","sub13","01","05","rl","test","75","img/r_s_dots.png","7","75","color,shape,pattern","33","1",""
"null","131276","HierDy5cpq4rca","sub13","01","05","feedback","test","null","","","na","","33","",""
"825.2999999821186","132103","HierDy5cpq4rca","sub13","01","05","rl","test","72","img/r_c_dots.png","5","72","color,shape,pattern","34","1",""
"null","133116","HierDy5cpq4rca","sub13","01","05","feedback","test","null","","","na","","34","",""
"1591.2999999821186","134709","HierDy5cpq4rca","sub13","01","05","rl","test","83","img/b_c_dots.png","1","65","color,shape,pattern","35","0",""
"null","135716","HierDy5cpq4rca","sub13","01","05","feedback","test","null","","","na","","35","",""
"1237.300000011921","136955","HierDy5cpq4rca","sub13","01","05","rl","test","74","img/r_c_stripes.png","6","74","color,shape,pattern","36","1",""
"null","137966","HierDy5cpq4rca","sub13","01","05","feedback","test","null","","","na","","36","",""
"861.5999999940395","138829","HierDy5cpq4rca","sub13","01","05","rl","test","70","img/b_s_stripes.png","4","70","color,shape,pattern","37","1",""
"null","139847","HierDy5cpq4rca","sub13","01","05","feedback","test","null","","","na","","37","",""
"1984.5","141833","HierDy5cpq4rca","sub13","01","05","rl","test","72","img/r_c_dots.png","5","72","color,shape,pattern","38","1",""
"null","142856","HierDy5cpq4rca","sub13","01","05","feedback","test","null","","","na","","38","",""
"944.7999999821186","143802","HierDy5cpq4rca","sub13","01","05","rl","test","70","img/b_s_stripes.png","4","70","color,shape,pattern","39","1",""
"null","144816","HierDy5cpq4rca","sub13","01","05","feedback","test","null","","","na","","39","",""
"1698.2000000178814","146515","HierDy5cpq4rca","sub13","01","05","rl","test","83","img/b_c_stripes.png","2","83","color,shape,pattern","40","1",""
"null","147536","HierDy5cpq4rca","sub13","01","05","feedback","test","null","","","na","","40","",""
"2212.5999999940395","149750","HierDy5cpq4rca","sub13","01","05","rl","test","68","img/b_s_dots.png","3","68","color,shape,pattern","41","1",""
"null","150766","HierDy5cpq4rca","sub13","01","05","feedback","test","null","","","na","","41","",""
"981.7999999821186","151749","HierDy5cpq4rca","sub13","01","05","rl","test","76","img/r_s_stripes.png","8","76","color,shape,pattern","42","1",""
"null","152766","HierDy5cpq4rca","sub13","01","05","feedback","test","null","","","na","","42","",""
"827.1999999880791","153594","HierDy5cpq4rca","sub13","01","05","rl","test","75","img/r_s_dots.png","7","75","color,shape,pattern","43","1",""
"null","154617","HierDy5cpq4rca","sub13","01","05","feedback","test","null","","","na","","43","",""
"1230.5999999940395","155849","HierDy5cpq4rca","sub13","01","05","rl","test","74","img/r_c_stripes.png","6","74","color,shape,pattern","44","1",""
"null","156856","HierDy5cpq4rca","sub13","01","05","feedback","test","null","","","na","","44","",""
"739.9000000059605","157598","HierDy5cpq4rca","sub13","01","05","rl","test","65","img/b_c_dots.png","1","65","color,shape,pattern","45","1",""
"null","158617","HierDy5cpq4rca","sub13","01","05","feedback","test","null","","","na","","45","",""
"1280.699999988079","159899","HierDy5cpq4rca","sub13","01","05","rl","test","65","img/b_c_dots.png","1","65","color,shape,pattern","46","1",""
"null","160908","HierDy5cpq4rca","sub13","01","05","feedback","test","null","","","na","","46","",""
"727.7000000178814","161637","HierDy5cpq4rca","sub13","01","05","rl","test","72","img/r_c_dots.png","5","72","color,shape,pattern","47","1",""
"null","162666","HierDy5cpq4rca","sub13","01","05","feedback","test","null","","","na","","47","",""
"1179","163847","HierDy5cpq4rca","sub13","01","05","rl","test","68","img/b_s_dots.png","3","68","color,shape,pattern","48","1",""
"null","164856","HierDy5cpq4rca","sub13","01","05","feedback","test","null","","","na","","48","",""
"1641.9000000059605","166499","HierDy5cpq4rca","sub13","01","05","rl","test","83","img/b_c_stripes.png","2","83","color,shape,pattern","49","1",""
"null","167516","HierDy5cpq4rca","sub13","01","05","feedback","test","null","","","na","","49","",""
"716","168233","HierDy5cpq4rca","sub13","01","05","rl","test","68","img/b_s_dots.png","3","68","color,shape,pattern","50","1",""
"null","169255","HierDy5cpq4rca","sub13","01","05","feedback","test","null","","","na","","50","",""
"705","169961","HierDy5cpq4rca","sub13","01","05","rl","test","72","img/r_c_dots.png","5","72","color,shape,pattern","51","1",""
"null","170986","HierDy5cpq4rca","sub13","01","05","feedback","test","null","","","na","","51","",""
"743","171730","HierDy5cpq4rca","sub13","01","05","rl","test","83","img/b_c_stripes.png","2","83","color,shape,pattern","52","1",""
"null","172746","HierDy5cpq4rca","sub13","01","05","feedback","test","null","","","na","","52","",""
"830.6000000238419","173578","HierDy5cpq4rca","sub13","01","05","rl","test","70","img/b_s_stripes.png","4","70","color,shape,pattern","53","1",""
"null","174586","HierDy5cpq4rca","sub13","01","05","feedback","test","null","","","na","","53","",""
"599.7000000178814","175187","HierDy5cpq4rca","sub13","01","05","rl","test","76","img/r_s_stripes.png","8","76","color,shape,pattern","54","1",""
"null","176206","HierDy5cpq4rca","sub13","01","05","feedback","test","null","","","na","","54","",""
"747.9000000059605","176956","HierDy5cpq4rca","sub13","01","05","rl","test","74","img/r_c_stripes.png","6","74","color,shape,pattern","55","1",""
"null","177966","HierDy5cpq4rca","sub13","01","05","feedback","test","null","","","na","","55","",""
"636.3000000119209","178603","HierDy5cpq4rca","sub13","01","05","rl","test","74","img/r_c_stripes.png","6","74","color,shape,pattern","56","1",""
"null","179616","HierDy5cpq4rca","sub13","01","05","feedback","test","null","","","na","","56","",""
"1158.7000000178814","180777","HierDy5cpq4rca","sub13","01","05","rl","test","83","img/b_c_stripes.png","2","83","color,shape,pattern","57","1",""
"null","181796","HierDy5cpq4rca","sub13","01","05","feedback","test","null","","","na","","57","",""
"691.5999999940395","182489","HierDy5cpq4rca","sub13","01","05","rl","test","75","img/r_s_dots.png","7","75","color,shape,pattern","58","1",""
"null","183506","HierDy5cpq4rca","sub13","01","05","feedback","test","null","","","na","","58","",""
"749.8999999761581","184258","HierDy5cpq4rca","sub13","01","05","rl","test","70","img/b_s_stripes.png","4","70","color,shape,pattern","59","1",""
"null","185266","HierDy5cpq4rca","sub13","01","05","feedback","test","null","","","na","","59","",""
"623.1999999880791","185891","HierDy5cpq4rca","sub13","01","05","rl","test","68","img/b_s_dots.png","3","68","color,shape,pattern","60","1",""
"null","186906","HierDy5cpq4rca","sub13","01","05","feedback","test","null","","","na","","60","",""
"802.5","187710","HierDy5cpq4rca","sub13","01","05","rl","test","65","img/b_c_dots.png","1","65","color,shape,pattern","61","1",""
"null","188735","HierDy5cpq4rca","sub13","01","05","feedback","test","null","","","na","","61","",""
"702.5999999940395","189438","HierDy5cpq4rca","sub13","01","05","rl","test","76","img/r_s_stripes.png","8","76","color,shape,pattern","62","1",""
"null","190456","HierDy5cpq4rca","sub13","01","05","feedback","test","null","","","na","","62","",""
"1066.699999988079","191524","HierDy5cpq4rca","sub13","01","05","rl","test","65","img/b_c_dots.png","1","65","color,shape,pattern","63","1",""
"null","192536","HierDy5cpq4rca","sub13","01","05","feedback","test","null","","","na","","63","",""
"664.0999999940395","193201","HierDy5cpq4rca","sub13","01","05","rl","test","72","img/r_c_dots.png","5","72","color,shape,pattern","64","1",""
"null","194226","HierDy5cpq4rca","sub13","01","05","feedback","test","null","","","na","","64","",""
"829.0999999940395","195056","HierDy5cpq4rca","sub13","01","05","rl","test","75","img/r_s_dots.png","7","75","color,shape,pattern","65","1",""
"null","196072","HierDy5cpq4rca","sub13","01","05","feedback","test","null","","","na","","65","",""
"1873.0999999940395","197946","HierDy5cpq4rca","sub13","01","05","rl","test","68","img/b_s_dots.png","3","68","color,shape,pattern","66","1",""
"null","198966","HierDy5cpq4rca","sub13","01","05","feedback","test","null","","","na","","66","",""
"680.3999999761581","199647","HierDy5cpq4rca","sub13","01","05","rl","test","72","img/r_c_dots.png","5","72","color,shape,pattern","67","1",""
"null","200656","HierDy5cpq4rca","sub13","01","05","feedback","test","null","","","na","","67","",""
"682.5999999940395","201340","HierDy5cpq4rca","sub13","01","05","rl","test","83","img/b_c_stripes.png","2","83","color,shape,pattern","68","1",""
"null","202356","HierDy5cpq4rca","sub13","01","05","feedback","test","null","","","na","","68","",""
"937.5","203295","HierDy5cpq4rca","sub13","01","05","rl","test","75","img/r_s_dots.png","7","75","color,shape,pattern","69","1",""
"null","204316","HierDy5cpq4rca","sub13","01","05","feedback","test","null","","","na","","69","",""
"699.7999999821186","205018","HierDy5cpq4rca","sub13","01","05","rl","test","74","img/r_c_stripes.png","6","74","color,shape,pattern","70","1",""
"null","206029","HierDy5cpq4rca","sub13","01","05","feedback","test","null","","","na","","70","",""
"720.6999999880791","206751","HierDy5cpq4rca","sub13","01","05","rl","test","70","img/b_s_stripes.png","4","70","color,shape,pattern","71","1",""
"null","207776","HierDy5cpq4rca","sub13","01","05","feedback","test","null","","","na","","71","",""
"736.9000000059605","208515","HierDy5cpq4rca","sub13","01","05","rl","test","72","img/r_c_dots.png","5","72","color,shape,pattern","72","1",""
"null","209526","HierDy5cpq4rca","sub13","01","05","feedback","test","null","","","na","","72","",""
"1156.2999999821186","210684","HierDy5cpq4rca","sub13","01","05","rl","test","76","img/r_s_stripes.png","8","76","color,shape,pattern","73","1",""
"null","211695","HierDy5cpq4rca","sub13","01","05","feedback","test","null","","","na","","73","",""
"616.0999999940395","212313","HierDy5cpq4rca","sub13","01","05","rl","test","76","img/r_s_stripes.png","8","76","color,shape,pattern","74","1",""
"null","213326","HierDy5cpq4rca","sub13","01","05","feedback","test","null","","","na","","74","",""
"848.7000000178814","214176","HierDy5cpq4rca","sub13","01","05","rl","test","70","img/b_s_stripes.png","4","70","color,shape,pattern","75","1",""
"null","215186","HierDy5cpq4rca","sub13","01","05","feedback","test","null","","","na","","75","",""
"1290.5","216478","HierDy5cpq4rca","sub13","01","05","rl","test","74","img/r_c_stripes.png","6","74","color,shape,pattern","76","1",""
"null","217496","HierDy5cpq4rca","sub13","01","05","feedback","test","null","","","na","","76","",""
"908.6999999880791","218406","HierDy5cpq4rca","sub13","01","05","rl","test","75","img/r_s_dots.png","7","75","color,shape,pattern","77","1",""
"null","219416","HierDy5cpq4rca","sub13","01","05","feedback","test","null","","","na","","77","",""
"1525.9000000059605","220943","HierDy5cpq4rca","sub13","01","05","rl","test","65","img/b_c_dots.png","1","65","color,shape,pattern","78","1",""
"null","221956","HierDy5cpq4rca","sub13","01","05","feedback","test","null","","","na","","78","",""
"1659.4000000059605","223617","HierDy5cpq4rca","sub13","01","05","rl","test","68","img/b_s_dots.png","3","68","color,shape,pattern","79","1",""
"null","224636","HierDy5cpq4rca","sub13","01","05","feedback","test","null","","","na","","79","",""
"641.5","225279","HierDy5cpq4rca","sub13","01","05","rl","test","83","img/b_c_stripes.png","2","83","color,shape,pattern","80","1",""
"null","226306","HierDy5cpq4rca","sub13","01","05","feedback","test","null","","","na","","80","",""
"594.8000000119209","226902","HierDy5cpq4rca","sub13","01","05","rl","test","76","img/r_s_stripes.png","8","76","color,shape,pattern","81","1",""
"null","227926","HierDy5cpq4rca","sub13","01","05","feedback","test","null","","","na","","81","",""
"1717.5","229645","HierDy5cpq4rca","sub13","01","05","rl","test","72","img/r_c_dots.png","5","72","color,shape,pattern","82","1",""
"null","230657","HierDy5cpq4rca","sub13","01","05","feedback","test","null","","","na","","82","",""
"930.9000000059605","231589","HierDy5cpq4rca","sub13","01","05","rl","test","65","img/b_c_dots.png","1","65","color,shape,pattern","83","1",""
"null","232596","HierDy5cpq4rca","sub13","01","05","feedback","test","null","","","na","","83","",""
"725.0999999940395","233323","HierDy5cpq4rca","sub13","01","05","rl","test","70","img/b_s_stripes.png","4","70","color,shape,pattern","84","1",""
"null","234336","HierDy5cpq4rca","sub13","01","05","feedback","test","null","","","na","","84","",""
"null","236846","HierDy5cpq4rca","sub13","01","05","rl","test","null","img/b_c_stripes.png","2","83","color,shape,pattern","85","0",""
"null","237866","HierDy5cpq4rca","sub13","01","05","feedback","test","null","","","na","","85","",""
"1554.1000000238419","239421","HierDy5cpq4rca","sub13","01","05","rl","test","74","img/r_c_stripes.png","6","74","color,shape,pattern","86","1",""
"null","240436","HierDy5cpq4rca","sub13","01","05","feedback","test","null","","","na","","86","",""
"581.1999999880791","241019","HierDy5cpq4rca","sub13","01","05","rl","test","68","img/b_s_dots.png","3","68","color,shape,pattern","87","1",""
"null","242036","HierDy5cpq4rca","sub13","01","05","feedback","test","null","","","na","","87","",""
"1281.800000011921","243319","HierDy5cpq4rca","sub13","01","05","rl","test","74","img/r_c_stripes.png","6","74","color,shape,pattern","88","1",""
"null","244332","HierDy5cpq4rca","sub13","01","05","feedback","test","null","","","na","","88","",""
"684.5","245018","HierDy5cpq4rca","sub13","01","05","rl","test","75","img/r_s_dots.png","7","75","color,shape,pattern","89","1",""
"null","246025","HierDy5cpq4rca","sub13","01","05","feedback","test","null","","","na","","89","",""
"760","246787","HierDy5cpq4rca","sub13","01","05","rl","test","70","img/b_s_dots.png","3","68","color,shape,pattern","90","0",""
"null","247806","HierDy5cpq4rca","sub13","01","05","feedback","test","null","","","na","","90","",""
"1134.699999988079","248943","HierDy5cpq4rca","sub13","01","05","rl","test","83","img/b_c_stripes.png","2","83","color,shape,pattern","91","1",""
"null","249956","HierDy5cpq4rca","sub13","01","05","feedback","test","null","","","na","","91","",""
"914.7999999821186","250872","HierDy5cpq4rca","sub13","01","05","rl","test","76","img/r_s_stripes.png","8","76","color,shape,pattern","92","1",""
"null","251897","HierDy5cpq4rca","sub13","01","05","feedback","test","null","","","na","","92","",""
"1027.800000011921","252926","HierDy5cpq4rca","sub13","01","05","rl","test","75","img/r_s_dots.png","7","75","color,shape,pattern","93","1",""
"null","253936","HierDy5cpq4rca","sub13","01","05","feedback","test","null","","","na","","93","",""
"590.9000000059605","254528","HierDy5cpq4rca","sub13","01","05","rl","test","75","img/r_s_dots.png","7","75","color,shape,pattern","94","1",""
"null","255536","HierDy5cpq4rca","sub13","01","05","feedback","test","null","","","na","","94","",""
"764.8000000119209","256302","HierDy5cpq4rca","sub13","01","05","rl","test","72","img/r_c_dots.png","5","72","color,shape,pattern","95","1",""
"null","257326","HierDy5cpq4rca","sub13","01","05","feedback","test","null","","","na","","95","",""
"968.8000000119209","258296","HierDy5cpq4rca","sub13","01","05","rl","test","70","img/b_s_stripes.png","4","70","color,shape,pattern","96","1",""
"null","259316","HierDy5cpq4rca","sub13","01","05","feedback","test","null","","","na","","96","",""
"913.1999999880791","260230","HierDy5cpq4rca","sub13","01","05","rl","test","65","img/b_c_dots.png","1","65","color,shape,pattern","97","1",""
"null","261256","HierDy5cpq4rca","sub13","01","05","feedback","test","null","","","na","","97","",""
"841.4000000059605","262099","HierDy5cpq4rca","sub13","01","05","rl","test","72","img/r_c_dots.png","5","72","color,shape,pattern","98","1",""
"null","263116","HierDy5cpq4rca","sub13","01","05","feedback","test","null","","","na","","98","",""
"1111.7000000178814","264229","HierDy5cpq4rca","sub13","01","05","rl","test","68","img/b_s_dots.png","3","68","color,shape,pattern","99","1",""
"null","265236","HierDy5cpq4rca","sub13","01","05","feedback","test","null","","","na","","99","",""
"795.7999999821186","266033","HierDy5cpq4rca","sub13","01","05","rl","test","65","img/b_c_dots.png","1","65","color,shape,pattern","100","1",""
"null","267046","HierDy5cpq4rca","sub13","01","05","feedback","test","null","","","na","","100","",""
"2009.4000000059605","269057","HierDy5cpq4rca","sub13","01","05","rl","test","68","img/b_s_dots.png","3","68","color,shape,pattern","101","1",""
"null","270076","HierDy5cpq4rca","sub13","01","05","feedback","test","null","","","na","","101","",""
"778.5999999940395","270856","HierDy5cpq4rca","sub13","01","05","rl","test","74","img/r_c_stripes.png","6","74","color,shape,pattern","102","1",""
"null","271876","HierDy5cpq4rca","sub13","01","05","feedback","test","null","","","na","","102","",""
"2449.7000000178814","274327","HierDy5cpq4rca","sub13","01","05","rl","test","70","img/b_s_stripes.png","4","70","color,shape,pattern","103","1",""
"null","275336","HierDy5cpq4rca","sub13","01","05","feedback","test","null","","","na","","103","",""
"521.5","275859","HierDy5cpq4rca","sub13","01","05","rl","test","70","img/b_s_stripes.png","4","70","color,shape,pattern","104","1",""
"null","276866","HierDy5cpq4rca","sub13","01","05","feedback","test","null","","","na","","104","",""
"795.6999999880791","277664","HierDy5cpq4rca","sub13","01","05","rl","test","83","img/b_c_stripes.png","2","83","color,shape,pattern","105","1",""
"null","278686","HierDy5cpq4rca","sub13","01","05","feedback","test","null","","","na","","105","",""
"934.1999999880791","279621","HierDy5cpq4rca","sub13","01","05","rl","test","65","img/b_c_dots.png","1","65","color,shape,pattern","106","1",""
"null","280635","HierDy5cpq4rca","sub13","01","05","feedback","test","null","","","na","","106","",""
"639.7000000178814","281276","HierDy5cpq4rca","sub13","01","05","rl","test","76","img/r_s_stripes.png","8","76","color,shape,pattern","107","1",""
"null","282296","HierDy5cpq4rca","sub13","01","05","feedback","test","null","","","na","","107","",""
"494.7999999821186","282793","HierDy5cpq4rca","sub13","01","05","rl","test","76","img/r_s_stripes.png","8","76","color,shape,pattern","108","1",""
"null","283816","HierDy5cpq4rca","sub13","01","05","feedback","test","null","","","na","","108","",""
"799.0999999940395","284617","HierDy5cpq4rca","sub13","01","05","rl","test","75","img/r_s_dots.png","7","75","color,shape,pattern","109","1",""
"null","285636","HierDy5cpq4rca","sub13","01","05","feedback","test","null","","","na","","109","",""
"908.6999999880791","286546","HierDy5cpq4rca","sub13","01","05","rl","test","83","img/b_c_stripes.png","2","83","color,shape,pattern","110","1",""
"null","287556","HierDy5cpq4rca","sub13","01","05","feedback","test","null","","","na","","110","",""
"1219.699999988079","288777","HierDy5cpq4rca","sub13","01","05","rl","test","74","img/r_c_stripes.png","6","74","color,shape,pattern","111","1",""
"null","289786","HierDy5cpq4rca","sub13","01","05","feedback","test","null","","","na","","111","",""
"1229","291017","HierDy5cpq4rca","sub13","01","05","rl","test","70","img/b_s_stripes.png","4","70","color,shape,pattern","112","1",""
"null","292026","HierDy5cpq4rca","sub13","01","05","feedback","test","null","","","na","","112","",""
"1149.9000000059605","293178","HierDy5cpq4rca","sub13","01","05","rl","test","72","img/r_c_dots.png","5","72","color,shape,pattern","113","1",""
"null","294196","HierDy5cpq4rca","sub13","01","05","feedback","test","null","","","na","","113","",""
"1010.1999999880791","295207","HierDy5cpq4rca","sub13","01","05","rl","test","68","img/b_s_dots.png","3","68","color,shape,pattern","114","1",""
"null","296216","HierDy5cpq4rca","sub13","01","05","feedback","test","null","","","na","","114","",""
"1918.4000000059605","298136","HierDy5cpq4rca","sub13","01","05","rl","test","74","img/r_c_stripes.png","6","74","color,shape,pattern","115","1",""
"null","299155","HierDy5cpq4rca","sub13","01","05","feedback","test","null","","","na","","115","",""
"911.9000000059605","300069","HierDy5cpq4rca","sub13","01","05","rl","test","75","img/r_s_dots.png","7","75","color,shape,pattern","116","1",""
"null","301086","HierDy5cpq4rca","sub13","01","05","feedback","test","null","","","na","","116","",""
"775.3000000119209","301863","HierDy5cpq4rca","sub13","01","05","rl","test","65","img/b_c_dots.png","1","65","color,shape,pattern","117","1",""
"null","302886","HierDy5cpq4rca","sub13","01","05","feedback","test","null","","","na","","117","",""
"1407","304294","HierDy5cpq4rca","sub13","01","05","rl","test","70","img/r_s_stripes.png","8","76","color,shape,pattern","118","0",""
"null","305316","HierDy5cpq4rca","sub13","01","05","feedback","test","null","","","na","","118","",""
"2270.800000011921","307588","HierDy5cpq4rca","sub13","01","05","rl","test","83","img/b_c_stripes.png","2","83","color,shape,pattern","119","1",""
"null","308605","HierDy5cpq4rca","sub13","01","05","feedback","test","null","","","na","","119","",""
"505","309112","HierDy5cpq4rca","sub13","01","05","rl","test","76","img/r_s_stripes.png","8","76","color,shape,pattern","120","1",""
"null","310136","HierDy5cpq4rca","sub13","01","05","feedback","test","null","","","na","","120","",""
"839.5","310977","HierDy5cpq4rca","sub13","01","05","rl","test","72","img/r_c_dots.png","5","72","color,shape,pattern","121","1",""
"null","311996","HierDy5cpq4rca","sub13","01","05","feedback","test","null","","","na","","121","",""
"1087.4000000059605","313085","HierDy5cpq4rca","sub13","01","05","rl","test","83","img/b_c_stripes.png","2","83","color,shape,pattern","122","1",""
"null","314087","HierDy5cpq4rca","sub13","01","05","feedback","test","null","","","na","","122","",""
"1239.300000011921","315328","HierDy5cpq4rca","sub13","01","05","rl","test","75","img/r_s_dots.png","7","75","color,shape,pattern","123","1",""
"null","316346","HierDy5cpq4rca","sub13","01","05","feedback","test","null","","","na","","123","",""
"2069.5","318417","HierDy5cpq4rca","sub13","01","05","rl","test","68","img/b_s_dots.png","3","68","color,shape,pattern","124","1",""
"null","319436","HierDy5cpq4rca","sub13","01","05","feedback","test","null","","","na","","124","",""
"561.2000000178814","319999","HierDy5cpq4rca","sub13","01","05","rl","test","72","img/r_c_dots.png","5","72","color,shape,pattern","125","1",""
"null","321016","HierDy5cpq4rca","sub13","01","05","feedback","test","null","","","na","","125","",""
"880.4000000059605","321898","HierDy5cpq4rca","sub13","01","05","rl","test","70","img/b_s_stripes.png","4","70","color,shape,pattern","126","1",""
"null","322916","HierDy5cpq4rca","sub13","01","05","feedback","test","null","","","na","","126","",""
"970","323887","HierDy5cpq4rca","sub13","01","05","rl","test","74","img/r_c_stripes.png","6","74","color,shape,pattern","127","1",""
"null","324896","HierDy5cpq4rca","sub13","01","05","feedback","test","null","","","na","","127","",""
"799.9000000059605","325697","HierDy5cpq4rca","sub13","01","05","rl","test","65","img/b_c_dots.png","1","65","color,shape,pattern","128","1",""
"null","326716","HierDy5cpq4rca","sub13","01","05","feedback","test","null","","","na","","128","",""
"787.1000000238419","327504","HierDy5cpq4rca","sub13","01","05","rl","test","75","img/r_s_dots.png","7","75","color,shape,pattern","129","1",""
"null","328518","HierDy5cpq4rca","sub13","01","05","feedback","test","null","","","na","","129","",""
"1627.5999999940395","330147","HierDy5cpq4rca","sub13","01","05","rl","test","65","img/b_c_dots.png","1","65","color,shape,pattern","130","1",""
"null","331156","HierDy5cpq4rca","sub13","01","05","feedback","test","null","","","na","","130","",""
"812.1999999880791","331970","HierDy5cpq4rca","sub13","01","05","rl","test","70","img/b_s_stripes.png","4","70","color,shape,pattern","131","1",""
"null","332976","HierDy5cpq4rca","sub13","01","05","feedback","test","null","","","na","","131","",""
"1127.6000000238419","334105","HierDy5cpq4rca","sub13","01","05","rl","test","74","img/r_c_stripes.png","6","74","color,shape,pattern","132","1",""
"null","335113","HierDy5cpq4rca","sub13","01","05","feedback","test","null","","","na","","132","",""
"1005.0999999940395","336119","HierDy5cpq4rca","sub13","01","05","rl","test","68","img/b_s_dots.png","3","68","color,shape,pattern","133","1",""
"null","337146","HierDy5cpq4rca","sub13","01","05","feedback","test","null","","","na","","133","",""
"926.5","338074","HierDy5cpq4rca","sub13","01","05","rl","test","76","img/r_s_stripes.png","8","76","color,shape,pattern","134","1",""
"null","339086","HierDy5cpq4rca","sub13","01","05","feedback","test","null","","","na","","134","",""
"1067.1000000238419","340154","HierDy5cpq4rca","sub13","01","05","rl","test","83","img/b_c_stripes.png","2","83","color,shape,pattern","135","1",""
"null","341176","HierDy5cpq4rca","sub13","01","05","feedback","test","null","","","na","","135","",""
"1090.5","342268","HierDy5cpq4rca","sub13","01","05","rl","test","72","img/r_c_dots.png","5","72","color,shape,pattern","136","1",""
"null","343276","HierDy5cpq4rca","sub13","01","05","feedback","test","null","","","na","","136","",""
"808.6999999880791","344086","HierDy5cpq4rca","sub13","01","05","rl","test","72","img/r_c_dots.png","5","72","color,shape,pattern","137","1",""
"null","345096","HierDy5cpq4rca","sub13","01","05","feedback","test","null","","","na","","137","",""
"1290.5","346387","HierDy5cpq4rca","sub13","01","05","rl","test","83","img/b_c_stripes.png","2","83","color,shape,pattern","138","1",""
"null","347406","HierDy5cpq4rca","sub13","01","05","feedback","test","null","","","na","","138","",""
"1457.2000000178814","348865","HierDy5cpq4rca","sub13","01","05","rl","test","74","img/r_c_stripes.png","6","74","color,shape,pattern","139","1",""
"null","349886","HierDy5cpq4rca","sub13","01","05","feedback","test","null","","","na","","139","",""
"710","350598","HierDy5cpq4rca","sub13","01","05","rl","test","65","img/b_c_dots.png","1","65","color,shape,pattern","140","1",""
"null","351616","HierDy5cpq4rca","sub13","01","05","feedback","test","null","","","na","","140","",""
"734.9000000059605","352352","HierDy5cpq4rca","sub13","01","05","rl","test","68","img/b_s_dots.png","3","68","color,shape,pattern","141","1",""
"null","353376","HierDy5cpq4rca","sub13","01","05","feedback","test","null","","","na","","141","",""
"676.4000000059605","354054","HierDy5cpq4rca","sub13","01","05","rl","test","75","img/r_s_dots.png","7","75","color,shape,pattern","142","1",""
"null","355076","HierDy5cpq4rca","sub13","01","05","feedback","test","null","","","na","","142","",""
"716.0999999940395","355793","HierDy5cpq4rca","sub13","01","05","rl","test","70","img/b_s_stripes.png","4","70","color,shape,pattern","143","1",""
"null","356816","HierDy5cpq4rca","sub13","01","05","feedback","test","null","","","na","","143","",""
"1004.5","357822","HierDy5cpq4rca","sub13","01","05","rl","test","83","img/b_c_stripes.png","2","83","color,shape,pattern","144","1",""
"null","358846","HierDy5cpq4rca","sub13","01","05","feedback","test","null","","","na","","144","",""
"687.4000000059605","359535","HierDy5cpq4rca","sub13","01","05","rl","test","70","img/b_s_stripes.png","4","70","color,shape,pattern","145","1",""
"null","360546","HierDy5cpq4rca","sub13","01","05","feedback","test","null","","","na","","145","",""
"739.7000000178814","361287","HierDy5cpq4rca","sub13","01","05","rl","test","75","img/r_s_dots.png","7","75","color,shape,pattern","146","1",""
"null","362306","HierDy5cpq4rca","sub13","01","05","feedback","test","null","","","na","","146","",""
"797.8000000119209","363105","HierDy5cpq4rca","sub13","01","05","rl","test","76","img/r_s_stripes.png","8","76","color,shape,pattern","147","1",""
"null","364116","HierDy5cpq4rca","sub13","01","05","feedback","test","null","","","na","","147","",""
"635.4000000059605","364752","HierDy5cpq4rca","sub13","01","05","rl","test","76","img/r_s_stripes.png","8","76","color,shape,pattern","148","1",""
"null","365776","HierDy5cpq4rca","sub13","01","05","feedback","test","null","","","na","","148","",""
"808.2000000178814","366585","HierDy5cpq4rca","sub13","01","05","rl","test","72","img/r_c_dots.png","5","72","color,shape,pattern","149","1",""
"null","367596","HierDy5cpq4rca","sub13","01","05","feedback","test","null","","","na","","149","",""
"1062.4000000059605","368659","HierDy5cpq4rca","sub13","01","05","rl","test","65","img/b_c_dots.png","1","65","color,shape,pattern","150","1",""
"null","369666","HierDy5cpq4rca","sub13","01","05","feedback","test","null","","","na","","150","",""
"866.4000000059605","370533","HierDy5cpq4rca","sub13","01","05","rl","test","68","img/b_s_dots.png","3","68","color,shape,pattern","151","1",""
"null","371545","HierDy5cpq4rca","sub13","01","05","feedback","test","null","","","na","","151","",""
"650.4000000059605","372197","HierDy5cpq4rca","sub13","01","05","rl","test","75","img/r_s_dots.png","7","75","color,shape,pattern","152","1",""
"null","373206","HierDy5cpq4rca","sub13","01","05","feedback","test","null","","","na","","152","",""
"1119.4000000059605","374327","HierDy5cpq4rca","sub13","01","05","rl","test","74","img/r_c_stripes.png","6","74","color,shape,pattern","153","1",""
"null","375336","HierDy5cpq4rca","sub13","01","05","feedback","test","null","","","na","","153","",""
"1390.800000011921","376728","HierDy5cpq4rca","sub13","01","05","rl","test","68","img/b_s_dots.png","3","68","color,shape,pattern","154","1",""
"null","377736","HierDy5cpq4rca","sub13","01","05","feedback","test","null","","","na","","154","",""
"840.6999999880791","378578","HierDy5cpq4rca","sub13","01","05","rl","test","83","img/b_c_stripes.png","2","83","color,shape,pattern","155","1",""
"null","379586","HierDy5cpq4rca","sub13","01","05","feedback","test","null","","","na","","155","",""
"667.0999999940395","380255","HierDy5cpq4rca","sub13","01","05","rl","test","72","img/r_c_dots.png","5","72","color,shape,pattern","156","1",""
"null","381265","HierDy5cpq4rca","sub13","01","05","feedback","test","null","","","na","","156","",""
"1112.300000011921","382379","HierDy5cpq4rca","sub13","01","05","rl","test","74","img/r_c_stripes.png","6","74","color,shape,pattern","157","1",""
"null","383386","HierDy5cpq4rca","sub13","01","05","feedback","test","null","","","na","","157","",""
"769.5","384157","HierDy5cpq4rca","sub13","01","05","rl","test","65","img/b_c_dots.png","1","65","color,shape,pattern","158","1",""
"null","385176","HierDy5cpq4rca","sub13","01","05","feedback","test","null","","","na","","158","",""
"1300.699999988079","386478","HierDy5cpq4rca","sub13","01","05","rl","test","68","img/b_s_dots.png","3","68","color,shape,pattern","159","1",""
"null","387496","HierDy5cpq4rca","sub13","01","05","feedback","test","null","","","na","","159","",""
"689.5999999940395","388187","HierDy5cpq4rca","sub13","01","05","rl","test","70","img/b_s_stripes.png","4","70","color,shape,pattern","160","1",""
"null","389192","HierDy5cpq4rca","sub13","01","05","feedback","test","null","","","na","","160","",""
"641.1999999880791","389835","HierDy5cpq4rca","sub13","01","05","rl","test","70","img/b_s_stripes.png","4","70","color,shape,pattern","161","1",""
"null","390846","HierDy5cpq4rca","sub13","01","05","feedback","test","null","","","na","","161","",""
"1042.2000000178814","391889","HierDy5cpq4rca","sub13","01","05","rl","test","76","img/r_s_stripes.png","8","76","color,shape,pattern","162","1",""
"null","392906","HierDy5cpq4rca","sub13","01","05","feedback","test","null","","","na","","162","",""
"735.5999999940395","393643","HierDy5cpq4rca","sub13","01","05","rl","test","65","img/b_c_dots.png","1","65","color,shape,pattern","163","1",""
"null","394656","HierDy5cpq4rca","sub13","01","05","feedback","test","null","","","na","","163","",""
"1674.5","396332","HierDy5cpq4rca","sub13","01","05","rl","test","83","img/b_c_stripes.png","2","83","color,shape,pattern","164","1",""
"null","397336","HierDy5cpq4rca","sub13","01","05","feedback","test","null","","","na","","164","",""
"726.6000000238419","398064","HierDy5cpq4rca","sub13","01","05","rl","test","76","img/r_s_stripes.png","8","76","color,shape,pattern","165","1",""
"null","399086","HierDy5cpq4rca","sub13","01","05","feedback","test","null","","","na","","165","",""
"1307.4000000059605","400395","HierDy5cpq4rca","sub13","01","05","rl","test","74","img/r_c_stripes.png","6","74","color,shape,pattern","166","1",""
"null","401406","HierDy5cpq4rca","sub13","01","05","feedback","test","null","","","na","","166","",""
"1535.4000000059605","402942","HierDy5cpq4rca","sub13","01","05","rl","test","75","img/r_s_dots.png","7","75","color,shape,pattern","167","1",""
"null","403956","HierDy5cpq4rca","sub13","01","05","feedback","test","null","","","na","","167","",""
"944.3000000119209","404902","HierDy5cpq4rca","sub13","01","05","rl","test","72","img/r_c_dots.png","5","72","color,shape,pattern","168","1",""
"null","405916","HierDy5cpq4rca","sub13","01","05","feedback","test","null","","","na","","168","",""
"1550.9000000059605","407469","HierDy5cpq4rca","sub13","01","05","rl","test","75","img/r_s_dots.png","7","75","color,shape,pattern","169","1",""
"null","408485","HierDy5cpq4rca","sub13","01","05","feedback","test","null","","","na","","169","",""
"760.9000000059605","409247","HierDy5cpq4rca","sub13","01","05","rl","test","65","img/b_c_dots.png","1","65","color,shape,pattern","170","1",""
"null","410265","HierDy5cpq4rca","sub13","01","05","feedback","test","null","","","na","","170","",""
"1085.199999988079","411352","HierDy5cpq4rca","sub13","01","05","rl","test","76","img/r_s_stripes.png","8","76","color,shape,pattern","171","1",""
"null","412366","HierDy5cpq4rca","sub13","01","05","feedback","test","null","","","na","","171","",""
"1149.9000000059605","413517","HierDy5cpq4rca","sub13","01","05","rl","test","70","img/b_s_stripes.png","4","70","color,shape,pattern","172","1",""
"null","414537","HierDy5cpq4rca","sub13","01","05","feedback","test","null","","","na","","172","",""
"1339.5999999940395","415878","HierDy5cpq4rca","sub13","01","05","rl","test","83","img/b_c_stripes.png","2","83","color,shape,pattern","173","1",""
"null","416896","HierDy5cpq4rca","sub13","01","05","feedback","test","null","","","na","","173","",""
"1059.5","417957","HierDy5cpq4rca","sub13","01","05","rl","test","68","img/b_s_dots.png","3","68","color,shape,pattern","174","1",""
"null","418978","HierDy5cpq4rca","sub13","01","05","feedback","test","null","","","na","","174","",""
"742.2999999821186","419722","HierDy5cpq4rca","sub13","01","05","rl","test","72","img/r_c_dots.png","5","72","color,shape,pattern","175","1",""
"null","420746","HierDy5cpq4rca","sub13","01","05","feedback","test","null","","","na","","175","",""
"1325.9000000059605","422072","HierDy5cpq4rca","sub13","01","05","rl","test","68","img/b_s_dots.png","3","68","color,shape,pattern","176","1",""
"null","423096","HierDy5cpq4rca","sub13","01","05","feedback","test","null","","","na","","176","",""
"1426.4000000059605","424523","HierDy5cpq4rca","sub13","01","05","rl","test","83","img/b_c_stripes.png","2","83","color,shape,pattern","177","1",""
"null","425536","HierDy5cpq4rca","sub13","01","05","feedback","test","null","","","na","","177","",""
"880","426417","HierDy5cpq4rca","sub13","01","05","rl","test","65","img/b_c_dots.png","1","65","color,shape,pattern","178","1",""
"null","427436","HierDy5cpq4rca","sub13","01","05","feedback","test","null","","","na","","178","",""
"1190.300000011921","428627","HierDy5cpq4rca","sub13","01","05","rl","test","74","img/r_c_stripes.png","6","74","color,shape,pattern","179","1",""
"null","429636","HierDy5cpq4rca","sub13","01","05","feedback","test","null","","","na","","179","",""
"649.0999999940395","430287","HierDy5cpq4rca","sub13","01","05","rl","test","74","img/r_c_stripes.png","6","74","color,shape,pattern","180","1",""
"null","431305","HierDy5cpq4rca","sub13","01","05","feedback","test","null","","","na","","180","",""
"898.7000000178814","432206","HierDy5cpq4rca","sub13","01","05","rl","test","76","img/r_s_stripes.png","8","76","color,shape,pattern","181","1",""
"null","433225","HierDy5cpq4rca","sub13","01","05","feedback","test","null","","","na","","181","",""
"676.6999999880791","433904","HierDy5cpq4rca","sub13","01","05","rl","test","75","img/r_s_dots.png","7","75","color,shape,pattern","182","1",""
"null","434916","HierDy5cpq4rca","sub13","01","05","feedback","test","null","","","na","","182","",""
"904.5","435822","HierDy5cpq4rca","sub13","01","05","rl","test","72","img/r_c_dots.png","5","72","color,shape,pattern","183","1",""
"null","436832","HierDy5cpq4rca","sub13","01","05","feedback","test","null","","","na","","183","",""
"823.2000000178814","437657","HierDy5cpq4rca","sub13","01","05","rl","test","70","img/b_s_stripes.png","4","70","color,shape,pattern","184","1",""
"null","438676","HierDy5cpq4rca","sub13","01","05","feedback","test","null","","","na","","184","",""
"640.1999999880791","439318","HierDy5cpq4rca","sub13","01","05","rl","test","76","img/r_s_stripes.png","8","76","color,shape,pattern","185","1",""
"null","440345","HierDy5cpq4rca","sub13","01","05","feedback","test","null","","","na","","185","",""
"645.4000000059605","440992","HierDy5cpq4rca","sub13","01","05","rl","test","70","img/b_s_stripes.png","4","70","color,shape,pattern","186","1",""
"null","442006","HierDy5cpq4rca","sub13","01","05","feedback","test","null","","","na","","186","",""
"738.1999999880791","442745","HierDy5cpq4rca","sub13","01","05","rl","test","68","img/b_s_dots.png","3","68","color,shape,pattern","187","1",""
"null","443766","HierDy5cpq4rca","sub13","01","05","feedback","test","null","","","na","","187","",""
"671.4000000059605","444438","HierDy5cpq4rca","sub13","01","05","rl","test","72","img/r_c_dots.png","5","72","color,shape,pattern","188","1",""
"null","445456","HierDy5cpq4rca","sub13","01","05","feedback","test","null","","","na","","188","",""
"1342.300000011921","446799","HierDy5cpq4rca","sub13","01","05","rl","test","70","img/b_s_stripes.png","4","70","color,shape,pattern","189","1",""
"null","447816","HierDy5cpq4rca","sub13","01","05","feedback","test","null","","","na","","189","",""
"1293.7000000178814","449111","HierDy5cpq4rca","sub13","01","05","rl","test","74","img/r_c_stripes.png","6","74","color,shape,pattern","190","1",""
"null","450136","HierDy5cpq4rca","sub13","01","05","feedback","test","null","","","na","","190","",""
"867","451004","HierDy5cpq4rca","sub13","01","05","rl","test","83","img/b_c_stripes.png","2","83","color,shape,pattern","191","1",""
"null","452012","HierDy5cpq4rca","sub13","01","05","feedback","test","null","","","na","","191","",""
"623.1999999880791","452637","HierDy5cpq4rca","sub13","01","05","rl","test","83","img/b_c_stripes.png","2","83","color,shape,pattern","192","1",""
"null","453646","HierDy5cpq4rca","sub13","01","05","feedback","test","null","","","na","","192","",""
"1043.4000000059605","454691","HierDy5cpq4rca","sub13","01","05","rl","test","65","img/b_c_dots.png","1","65","color,shape,pattern","193","1",""
"null","455706","HierDy5cpq4rca","sub13","01","05","feedback","test","null","","","na","","193","",""
"1240.0999999940395","456948","HierDy5cpq4rca","sub13","01","05","rl","test","72","img/r_c_dots.png","5","72","color,shape,pattern","194","1",""
"null","457967","HierDy5cpq4rca","sub13","01","05","feedback","test","null","","","na","","194","",""
"700.0999999940395","458669","HierDy5cpq4rca","sub13","01","05","rl","test","75","img/r_s_dots.png","7","75","color,shape,pattern","195","1",""
"null","459696","HierDy5cpq4rca","sub13","01","05","feedback","test","null","","","na","","195","",""
"575.0999999940395","460273","HierDy5cpq4rca","sub13","01","05","rl","test","76","img/r_s_stripes.png","8","76","color,shape,pattern","196","1",""
"null","461296","HierDy5cpq4rca","sub13","01","05","feedback","test","null","","","na","","196","",""
"1441.5","462739","HierDy5cpq4rca","sub13","01","05","rl","test","65","img/b_c_dots.png","1","65","color,shape,pattern","197","1",""
"null","463747","HierDy5cpq4rca","sub13","01","05","feedback","test","null","","","na","","197","",""
"1729.0999999940395","465477","HierDy5cpq4rca","sub13","01","05","rl","test","74","img/r_c_stripes.png","6","74","color,shape,pattern","198","1",""
"null","466506","HierDy5cpq4rca","sub13","01","05","feedback","test","null","","","na","","198","",""
"738.5","467246","HierDy5cpq4rca","sub13","01","05","rl","test","68","img/b_s_dots.png","3","68","color,shape,pattern","199","1",""
"null","468256","HierDy5cpq4rca","sub13","01","05","feedback","test","null","","","na","","199","",""
"1218.7999999821186","469476","HierDy5cpq4rca","sub13","01","05","rl","test","75","img/r_s_dots.png","7","75","color,shape,pattern","200","1",""
"null","470496","HierDy5cpq4rca","sub13","01","05","feedback","test","null","","","na","","200","",""
"580.3000000119209","471078","HierDy5cpq4rca","sub13","01","05","rl","test","75","img/r_s_dots.png","7","75","color,shape,pattern","201","1",""
"null","472096","HierDy5cpq4rca","sub13","01","05","feedback","test","null","","","na","","201","",""
"2105.5999999940395","474203","HierDy5cpq4rca","sub13","01","05","rl","test","68","img/b_s_dots.png","3","68","color,shape,pattern","202","1",""
"null","475226","HierDy5cpq4rca","sub13","01","05","feedback","test","null","","","na","","202","",""
"598.4000000059605","475826","HierDy5cpq4rca","sub13","01","05","rl","test","70","img/b_s_stripes.png","4","70","color,shape,pattern","203","1",""
"null","476846","HierDy5cpq4rca","sub13","01","05","feedback","test","null","","","na","","203","",""
"1043.3999999761581","477890","HierDy5cpq4rca","sub13","01","05","rl","test","65","img/b_c_dots.png","1","65","color,shape,pattern","204","1",""
"null","478896","HierDy5cpq4rca","sub13","01","05","feedback","test","null","","","na","","204","",""
"671.1999999880791","479568","HierDy5cpq4rca","sub13","01","05","rl","test","76","img/r_s_stripes.png","8","76","color,shape,pattern","205","1",""
"null","480576","HierDy5cpq4rca","sub13","01","05","feedback","test","null","","","na","","205","",""
"1246.800000011921","481824","HierDy5cpq4rca","sub13","01","05","rl","test","74","img/r_c_stripes.png","6","74","color,shape,pattern","206","1",""
"null","482836","HierDy5cpq4rca","sub13","01","05","feedback","test","null","","","na","","206","",""
"1854.4000000059605","484692","HierDy5cpq4rca","sub13","01","05","rl","test","83","img/b_c_stripes.png","2","83","color,shape,pattern","207","1",""
"null","485706","HierDy5cpq4rca","sub13","01","05","feedback","test","null","","","na","","207","",""
"1059.5","486767","HierDy5cpq4rca","sub13","01","05","rl","test","72","img/r_c_dots.png","5","72","color,shape,pattern","208","1",""
"null","487786","HierDy5cpq4rca","sub13","01","05","feedback","test","null","","","na","","208","",""
"786.7999999821186","488575","HierDy5cpq4rca","sub13","01","05","rl","test","70","img/b_s_stripes.png","4","70","color,shape,pattern","209","1",""
"null","489596","HierDy5cpq4rca","sub13","01","05","feedback","test","null","","","na","","209","",""
"756.8000000119209","490354","HierDy5cpq4rca","sub13","01","05","rl","test","72","img/r_c_dots.png","5","72","color,shape,pattern","210","1",""
"null","491376","HierDy5cpq4rca","sub13","01","05","feedback","test","null","","","na","","210","",""
"1432.5999999940395","492810","HierDy5cpq4rca","sub13","01","05","rl","test","65","img/b_c_dots.png","1","65","color,shape,pattern","211","1",""
"null","493825","HierDy5cpq4rca","sub13","01","05","feedback","test","null","","","na","","211","",""
"931.7999999821186","494758","HierDy5cpq4rca","sub13","01","05","rl","test","74","img/r_c_stripes.png","6","74","color,shape,pattern","212","1",""
"null","495786","HierDy5cpq4rca","sub13","01","05","feedback","test","null","","","na","","212","",""
"1433.699999988079","497221","HierDy5cpq4rca","sub13","01","05","rl","test","68","img/b_s_dots.png","3","68","color,shape,pattern","213","1",""
"null","498245","HierDy5cpq4rca","sub13","01","05","feedback","test","null","","","na","","213","",""
"1536.300000011921","499783","HierDy5cpq4rca","sub13","01","05","rl","test","75","img/r_s_dots.png","7","75","color,shape,pattern","214","1",""
"null","500806","HierDy5cpq4rca","sub13","01","05","feedback","test","null","","","na","","214","",""
"588","501395","HierDy5cpq4rca","sub13","01","05","rl","test","76","img/r_s_stripes.png","8","76","color,shape,pattern","215","1",""
"null","502406","HierDy5cpq4rca","sub13","01","05","feedback","test","null","","","na","","215","",""
"1084.5","503492","HierDy5cpq4rca","sub13","01","05","rl","test","83","img/b_c_stripes.png","2","83","color,shape,pattern","216","1",""
"null","504495","HierDy5cpq4rca","sub13","01","05","feedback","test","null","","","na","","216","",""
"2128.7000000178814","506625","HierDy5cpq4rca","sub13","01","05","rl","test","68","img/b_s_dots.png","3","68","color,shape,pattern","217","1",""
"null","507645","HierDy5cpq4rca","sub13","01","05","feedback","test","null","","","na","","217","",""
"667","508314","HierDy5cpq4rca","sub13","01","05","rl","test","83","img/b_c_stripes.png","2","83","color,shape,pattern","218","1",""
"null","509326","HierDy5cpq4rca","sub13","01","05","feedback","test","null","","","na","","218","",""
"1728.7000000178814","511056","HierDy5cpq4rca","sub13","01","05","rl","test","75","img/r_s_dots.png","7","75","color,shape,pattern","219","1",""
"null","512076","HierDy5cpq4rca","sub13","01","05","feedback","test","null","","","na","","219","",""
"561.7999999821186","512639","HierDy5cpq4rca","sub13","01","05","rl","test","75","img/r_s_dots.png","7","75","color,shape,pattern","220","1",""
"null","513665","HierDy5cpq4rca","sub13","01","05","feedback","test","null","","","na","","220","",""
"970.9000000059605","514637","HierDy5cpq4rca","sub13","01","05","rl","test","70","img/b_s_stripes.png","4","70","color,shape,pattern","221","1",""
"null","515665","HierDy5cpq4rca","sub13","01","05","feedback","test","null","","","na","","221","",""
"855.0999999940395","516522","HierDy5cpq4rca","sub13","01","05","rl","test","76","img/r_s_stripes.png","8","76","color,shape,pattern","222","1",""
"null","517546","HierDy5cpq4rca","sub13","01","05","feedback","test","null","","","na","","222","",""
"829.0999999940395","518376","HierDy5cpq4rca","sub13","01","05","rl","test","72","img/r_c_dots.png","5","72","color,shape,pattern","223","1",""
"null","519396","HierDy5cpq4rca","sub13","01","05","feedback","test","null","","","na","","223","",""
"666.7999999821186","520064","HierDy5cpq4rca","sub13","01","05","rl","test","70","img/b_s_stripes.png","4","70","color,shape,pattern","224","1",""
"null","521076","HierDy5cpq4rca","sub13","01","05","feedback","test","null","","","na","","224","",""
"720.4000000059605","521797","HierDy5cpq4rca","sub13","01","05","rl","test","65","img/b_c_dots.png","1","65","color,shape,pattern","225","1",""
"null","522816","HierDy5cpq4rca","sub13","01","05","feedback","test","null","","","na","","225","",""
"632.7999999821186","523450","HierDy5cpq4rca","sub13","01","05","rl","test","76","img/r_s_stripes.png","8","76","color,shape,pattern","226","1",""
"null","524465","HierDy5cpq4rca","sub13","01","05","feedback","test","null","","","na","","226","",""
"1033.699999988079","525501","HierDy5cpq4rca","sub13","01","05","rl","test","74","img/r_c_stripes.png","6","74","color,shape,pattern","227","1",""
"null","526526","HierDy5cpq4rca","sub13","01","05","feedback","test","null","","","na","","227","",""
"896.5999999940395","527424","HierDy5cpq4rca","sub13","01","05","rl","test","65","img/b_c_dots.png","1","65","color,shape,pattern","228","1",""
"null","528446","HierDy5cpq4rca","sub13","01","05","feedback","test","null","","","na","","228","",""
"694.3000000119209","529142","HierDy5cpq4rca","sub13","01","05","rl","test","68","img/b_s_dots.png","3","68","color,shape,pattern","229","1",""
"null","530166","HierDy5cpq4rca","sub13","01","05","feedback","test","null","","","na","","229","",""
"642","530809","HierDy5cpq4rca","sub13","01","05","rl","test","68","img/b_s_dots.png","3","68","color,shape,pattern","230","1",""
"null","531816","HierDy5cpq4rca","sub13","01","05","feedback","test","null","","","na","","230","",""
"971.6999999880791","532789","HierDy5cpq4rca","sub13","01","05","rl","test","72","img/r_c_dots.png","5","72","color,shape,pattern","231","1",""
"null","533815","HierDy5cpq4rca","sub13","01","05","feedback","test","null","","","na","","231","",""
"731.5","534548","HierDy5cpq4rca","sub13","01","05","rl","test","74","img/r_c_stripes.png","6","74","color,shape,pattern","232","1",""
"null","535566","HierDy5cpq4rca","sub13","01","05","feedback","test","null","","","na","","232","",""
"1137.3999999761581","536705","HierDy5cpq4rca","sub13","01","05","rl","test","83","img/b_c_stripes.png","2","83","color,shape,pattern","233","1",""
"null","537726","HierDy5cpq4rca","sub13","01","05","feedback","test","null","","","na","","233","",""
"820.2000000178814","538547","HierDy5cpq4rca","sub13","01","05","rl","test","70","img/b_s_stripes.png","4","70","color,shape,pattern","234","1",""
"null","539558","HierDy5cpq4rca","sub13","01","05","feedback","test","null","","","na","","234","",""
"1259","540818","HierDy5cpq4rca","sub13","01","05","rl","test","75","img/r_s_dots.png","7","75","color,shape,pattern","235","1",""
"null","541836","HierDy5cpq4rca","sub13","01","05","feedback","test","null","","","na","","235","",""
"1010.5999999940395","542848","HierDy5cpq4rca","sub13","01","05","rl","test","74","img/r_c_stripes.png","6","74","color,shape,pattern","236","1",""
"null","543855","HierDy5cpq4rca","sub13","01","05","feedback","test","null","","","na","","236","",""
"1216.5","545073","HierDy5cpq4rca","sub13","01","05","rl","test","72","img/r_c_dots.png","5","72","color,shape,pattern","237","1",""
"null","546095","HierDy5cpq4rca","sub13","01","05","feedback","test","null","","","na","","237","",""
"830.5999999940395","546927","HierDy5cpq4rca","sub13","01","05","rl","test","74","img/r_c_stripes.png","6","74","color,shape,pattern","238","1",""
"null","547946","HierDy5cpq4rca","sub13","01","05","feedback","test","null","","","na","","238","",""
"924.0999999940395","548871","HierDy5cpq4rca","sub13","01","05","rl","test","65","img/b_c_dots.png","1","65","color,shape,pattern","239","1",""
"null","549886","HierDy5cpq4rca","sub13","01","05","feedback","test","null","","","na","","239","",""
"617.8000000119209","550506","HierDy5cpq4rca","sub13","01","05","rl","test","76","img/r_s_stripes.png","8","76","color,shape,pattern","240","1",""
"null","551525","HierDy5cpq4rca","sub13","01","05","feedback","test","null","","","na","","240","",""
"1194.699999988079","552721","HierDy5cpq4rca","sub13","01","05","rl","test","83","img/b_c_stripes.png","2","83","color,shape,pattern","241","1",""
"null","553736","HierDy5cpq4rca","sub13","01","05","feedback","test","null","","","na","","241","",""
"626.2000000178814","554364","HierDy5cpq4rca","sub13","01","05","rl","test","83","img/b_c_stripes.png","2","83","color,shape,pattern","242","1",""
"null","555375","HierDy5cpq4rca","sub13","01","05","feedback","test","null","","","na","","242","",""
"765.5999999940395","556142","HierDy5cpq4rca","sub13","01","05","rl","test","76","img/r_s_stripes.png","8","76","color,shape,pattern","243","1",""
"null","557156","HierDy5cpq4rca","sub13","01","05","feedback","test","null","","","na","","243","",""
"874","558032","HierDy5cpq4rca","sub13","01","05","rl","test","75","img/r_s_dots.png","7","75","color,shape,pattern","244","1",""
"null","559046","HierDy5cpq4rca","sub13","01","05","feedback","test","null","","","na","","244","",""
"761.9000000059605","559809","HierDy5cpq4rca","sub13","01","05","rl","test","68","img/b_s_dots.png","3","68","color,shape,pattern","245","1",""
"null","560826","HierDy5cpq4rca","sub13","01","05","feedback","test","null","","","na","","245","",""
"706.8000000119209","561534","HierDy5cpq4rca","sub13","01","05","rl","test","65","img/b_c_dots.png","1","65","color,shape,pattern","246","1",""
"null","562546","HierDy5cpq4rca","sub13","01","05","feedback","test","null","","","na","","246","",""
"689.7999999821186","563237","HierDy5cpq4rca","sub13","01","05","rl","test","70","img/b_s_stripes.png","4","70","color,shape,pattern","247","1",""
"null","564256","HierDy5cpq4rca","sub13","01","05","feedback","test","null","","","na","","247","",""
"830","565087","HierDy5cpq4rca","sub13","01","05","rl","test","72","img/r_c_dots.png","5","72","color,shape,pattern","248","1",""
"null","566095","HierDy5cpq4rca","sub13","01","05","feedback","test","null","","","na","","248","",""
"19508.5","585610","HierDy5cpq4rca","sub13","01","05","","","","","","","","","","{""Q0"":""10 ""}"
"36015","621629","HierDy5cpq4rca","sub13","01","05","","","","","","","","","","{""Q0"":""I called the colors out in my mind so that I could isolate a hand and then make the choice. This also helped me remain focused.""}"
"7732.5999999940395","629362","HierDy5cpq4rca","sub13","01","05","","","","","","","","","",""
