"rt","time_elapsed","subject","subID","group","day","trialType","phase","key_press","stim","stimNum","corrresp","hierarchy","trialNum","corr","responses"
"11511.70000000298","11515","HierDyug7j7x7w","sub10","10","2","","","","","","","","","",""
"","18473","HierDyug7j7x7w","sub10","10","2","fullscreen","","","","","","","","",""
"3736.9000000059605","22211","HierDyug7j7x7w","sub10","10","2","","prac","","","","","","","",""
"17063.19999999553","39277","HierDyug7j7x7w","sub10","10","2","","","32","","","","","","",""
"2253.1999999955297","41530","HierDyug7j7x7w","sub10","10","2","","prac","","","","","","","",""
"1698.6999999955297","43233","HierDyug7j7x7w","sub10","10","2","rl","test","83","img/b_s_stripes.png","2","83","shape,pattern,color","1","1",""
"null","44240","HierDyug7j7x7w","sub10","10","2","feedback","test","null","","","na","","1","",""
"1240.6000000014901","45483","HierDyug7j7x7w","sub10","10","2","rl","test","75","img/p_t_check.png","7","75","shape,pattern,color","2","1",""
"null","46492","HierDyug7j7x7w","sub10","10","2","feedback","test","null","","","na","","2","",""
"1837.8999999985099","48331","HierDyug7j7x7w","sub10","10","2","rl","test","72","img/p_t_stripes.png","5","72","shape,pattern,color","3","1",""
"null","49336","HierDyug7j7x7w","sub10","10","2","feedback","test","null","","","na","","3","",""
"1419.1999999955297","50757","HierDyug7j7x7w","sub10","10","2","rl","test","65","img/p_s_stripes.png","1","65","shape,pattern,color","4","1",""
"null","51762","HierDyug7j7x7w","sub10","10","2","feedback","test","null","","","na","","4","",""
"679.2999999970198","52443","HierDyug7j7x7w","sub10","10","2","rl","test","70","img/b_s_check.png","4","70","shape,pattern,color","5","1",""
"null","53451","HierDyug7j7x7w","sub10","10","2","feedback","test","null","","","na","","5","",""
"1138","54591","HierDyug7j7x7w","sub10","10","2","rl","test","74","img/b_t_stripes.png","6","74","shape,pattern,color","6","1",""
"null","55598","HierDyug7j7x7w","sub10","10","2","feedback","test","null","","","na","","6","",""
"1676.6000000014901","57276","HierDyug7j7x7w","sub10","10","2","rl","test","68","img/p_s_check.png","3","68","shape,pattern,color","7","1",""
"null","58279","HierDyug7j7x7w","sub10","10","2","feedback","test","null","","","na","","7","",""
"2171.5","60451","HierDyug7j7x7w","sub10","10","2","rl","test","74","img/b_t_stripes.png","6","74","shape,pattern,color","8","1",""
"null","61456","HierDyug7j7x7w","sub10","10","2","feedback","test","null","","","na","","8","",""
"1956.1999999955297","63413","HierDyug7j7x7w","sub10","10","2","rl","test","65","img/p_s_stripes.png","1","65","shape,pattern,color","9","1",""
"null","64429","HierDyug7j7x7w","sub10","10","2","feedback","test","null","","","na","","9","",""
"1447.6000000014901","65878","HierDyug7j7x7w","sub10","10","2","rl","test","76","img/b_t_check.png","8","76","shape,pattern,color","10","1",""
"null","66888","HierDyug7j7x7w","sub10","10","2","feedback","test","null","","","na","","10","",""
"838.3000000044703","67728","HierDyug7j7x7w","sub10","10","2","rl","test","76","img/b_t_check.png","8","76","shape,pattern,color","11","1",""
"null","68735","HierDyug7j7x7w","sub10","10","2","feedback","test","null","","","na","","11","",""
"948","69685","HierDyug7j7x7w","sub10","10","2","rl","test","68","img/p_s_check.png","3","68","shape,pattern,color","12","1",""
"null","70695","HierDyug7j7x7w","sub10","10","2","feedback","test","null","","","na","","12","",""
"1989.7000000029802","72685","HierDyug7j7x7w","sub10","10","2","rl","test","72","img/p_t_stripes.png","5","72","shape,pattern,color","13","1",""
"null","73696","HierDyug7j7x7w","sub10","10","2","feedback","test","null","","","na","","13","",""
"1086.3000000044703","74784","HierDyug7j7x7w","sub10","10","2","rl","test","83","img/b_s_stripes.png","2","83","shape,pattern,color","14","1",""
"null","75797","HierDyug7j7x7w","sub10","10","2","feedback","test","null","","","na","","14","",""
"789.5","76588","HierDyug7j7x7w","sub10","10","2","rl","test","72","img/p_t_stripes.png","5","72","shape,pattern,color","15","1",""
"null","77591","HierDyug7j7x7w","sub10","10","2","feedback","test","null","","","na","","15","",""
"1645","79237","HierDyug7j7x7w","sub10","10","2","rl","test","75","img/p_t_check.png","7","75","shape,pattern,color","16","1",""
"null","80249","HierDyug7j7x7w","sub10","10","2","feedback","test","null","","","na","","16","",""
"562.8999999985099","80814","HierDyug7j7x7w","sub10","10","2","rl","test","70","img/b_s_check.png","4","70","shape,pattern,color","17","1",""
"null","81825","HierDyug7j7x7w","sub10","10","2","feedback","test","null","","","na","","17","",""
"2032.3999999985099","83860","HierDyug7j7x7w","sub10","10","2","rl","test","83","img/b_s_stripes.png","2","83","shape,pattern,color","18","1",""
"null","84862","HierDyug7j7x7w","sub10","10","2","feedback","test","null","","","na","","18","",""
"989.2000000029802","85853","HierDyug7j7x7w","sub10","10","2","rl","test","68","img/p_s_check.png","3","68","shape,pattern,color","19","1",""
"null","86865","HierDyug7j7x7w","sub10","10","2","feedback","test","null","","","na","","19","",""
"1991.8999999985099","88859","HierDyug7j7x7w","sub10","10","2","rl","test","76","img/b_t_check.png","8","76","shape,pattern,color","20","1",""
"null","89866","HierDyug7j7x7w","sub10","10","2","feedback","test","null","","","na","","20","",""
"1422.5","91290","HierDyug7j7x7w","sub10","10","2","rl","test","74","img/b_t_stripes.png","6","74","shape,pattern,color","21","1",""
"null","92300","HierDyug7j7x7w","sub10","10","2","feedback","test","null","","","na","","21","",""
"1426.6000000014901","93728","HierDyug7j7x7w","sub10","10","2","rl","test","75","img/p_t_check.png","7","75","shape,pattern,color","22","1",""
"null","94738","HierDyug7j7x7w","sub10","10","2","feedback","test","null","","","na","","22","",""
"1321.1000000014901","96061","HierDyug7j7x7w","sub10","10","2","rl","test","65","img/p_s_stripes.png","1","65","shape,pattern,color","23","1",""
"null","97070","HierDyug7j7x7w","sub10","10","2","feedback","test","null","","","na","","23","",""
"1837.5","98909","HierDyug7j7x7w","sub10","10","2","rl","test","75","img/b_t_check.png","8","76","shape,pattern,color","24","0",""
"null","99918","HierDyug7j7x7w","sub10","10","2","feedback","test","null","","","na","","24","",""
"831.5","100751","HierDyug7j7x7w","sub10","10","2","rl","test","70","img/b_s_check.png","4","70","shape,pattern,color","25","1",""
"null","101762","HierDyug7j7x7w","sub10","10","2","feedback","test","null","","","na","","25","",""
"null","104271","HierDyug7j7x7w","sub10","10","2","rl","test","null","img/p_s_stripes.png","1","65","shape,pattern,color","26","0",""
"null","105278","HierDyug7j7x7w","sub10","10","2","feedback","test","null","","","na","","26","",""
"1402.5999999940395","106684","HierDyug7j7x7w","sub10","10","2","rl","test","72","img/p_t_stripes.png","5","72","shape,pattern,color","27","1",""
"null","107695","HierDyug7j7x7w","sub10","10","2","feedback","test","null","","","na","","27","",""
"883.7000000029802","108580","HierDyug7j7x7w","sub10","10","2","rl","test","83","img/b_s_stripes.png","2","83","shape,pattern,color","28","1",""
"null","109592","HierDyug7j7x7w","sub10","10","2","feedback","test","null","","","na","","28","",""
"696.7000000029802","110290","HierDyug7j7x7w","sub10","10","2","rl","test","83","img/b_s_stripes.png","2","83","shape,pattern,color","29","1",""
"null","111298","HierDyug7j7x7w","sub10","10","2","feedback","test","null","","","na","","29","",""
"null","113808","HierDyug7j7x7w","sub10","10","2","rl","test","null","img/p_s_check.png","3","68","shape,pattern,color","30","0",""
"null","114818","HierDyug7j7x7w","sub10","10","2","feedback","test","null","","","na","","30","",""
"563.5","115383","HierDyug7j7x7w","sub10","10","2","rl","test","70","img/b_s_check.png","4","70","shape,pattern,color","31","1",""
"null","116394","HierDyug7j7x7w","sub10","10","2","feedback","test","null","","","na","","31","",""
"1257.5","117652","HierDyug7j7x7w","sub10","10","2","rl","test","74","img/b_t_stripes.png","6","74","shape,pattern,color","32","1",""
"null","118661","HierDyug7j7x7w","sub10","10","2","feedback","test","null","","","na","","32","",""
"529.6000000014901","119192","HierDyug7j7x7w","sub10","10","2","rl","test","68","img/b_s_check.png","4","70","shape,pattern,color","33","0",""
"null","120204","HierDyug7j7x7w","sub10","10","2","feedback","test","null","","","na","","33","",""
"1473.1000000014901","121678","HierDyug7j7x7w","sub10","10","2","rl","test","72","img/p_t_stripes.png","5","72","shape,pattern,color","34","1",""
"null","122689","HierDyug7j7x7w","sub10","10","2","feedback","test","null","","","na","","34","",""
"984.1999999955297","123674","HierDyug7j7x7w","sub10","10","2","rl","test","75","img/p_t_check.png","7","75","shape,pattern,color","35","1",""
"null","124677","HierDyug7j7x7w","sub10","10","2","feedback","test","null","","","na","","35","",""
"712.8000000044703","125391","HierDyug7j7x7w","sub10","10","2","rl","test","75","img/p_t_check.png","7","75","shape,pattern,color","36","1",""
"null","126401","HierDyug7j7x7w","sub10","10","2","feedback","test","null","","","na","","36","",""
"1610.6999999955297","128013","HierDyug7j7x7w","sub10","10","2","rl","test","74","img/b_t_stripes.png","6","74","shape,pattern,color","37","1",""
"null","129021","HierDyug7j7x7w","sub10","10","2","feedback","test","null","","","na","","37","",""
"1046.2000000029802","130068","HierDyug7j7x7w","sub10","10","2","rl","test","76","img/b_t_check.png","8","76","shape,pattern,color","38","1",""
"null","131080","HierDyug7j7x7w","sub10","10","2","feedback","test","null","","","na","","38","",""
"1130.8000000044703","132212","HierDyug7j7x7w","sub10","10","2","rl","test","68","img/p_s_check.png","3","68","shape,pattern,color","39","1",""
"null","133221","HierDyug7j7x7w","sub10","10","2","feedback","test","null","","","na","","39","",""
"1582","134807","HierDyug7j7x7w","sub10","10","2","rl","test","83","img/p_s_stripes.png","1","65","shape,pattern,color","40","0",""
"null","135818","HierDyug7j7x7w","sub10","10","2","feedback","test","null","","","na","","40","",""
"1800.5999999940395","137622","HierDyug7j7x7w","sub10","10","2","rl","test","75","img/b_t_check.png","8","76","shape,pattern,color","41","0",""
"null","138633","HierDyug7j7x7w","sub10","10","2","feedback","test","null","","","na","","41","",""
"1310","139946","HierDyug7j7x7w","sub10","10","2","rl","test","72","img/p_t_stripes.png","5","72","shape,pattern,color","42","1",""
"null","140952","HierDyug7j7x7w","sub10","10","2","feedback","test","null","","","na","","42","",""
"952.5","141907","HierDyug7j7x7w","sub10","10","2","rl","test","75","img/p_s_check.png","3","68","shape,pattern,color","43","0",""
"null","142917","HierDyug7j7x7w","sub10","10","2","feedback","test","null","","","na","","43","",""
"2054.39999999851","144975","HierDyug7j7x7w","sub10","10","2","rl","test","83","img/b_s_stripes.png","2","83","shape,pattern,color","44","1",""
"null","145987","HierDyug7j7x7w","sub10","10","2","feedback","test","null","","","na","","44","",""
"1763.5999999940395","147754","HierDyug7j7x7w","sub10","10","2","rl","test","75","img/p_t_check.png","7","75","shape,pattern,color","45","1",""
"null","148760","HierDyug7j7x7w","sub10","10","2","feedback","test","null","","","na","","45","",""
"1119.4000000059605","149881","HierDyug7j7x7w","sub10","10","2","rl","test","65","img/p_s_stripes.png","1","65","shape,pattern,color","46","1",""
"null","150892","HierDyug7j7x7w","sub10","10","2","feedback","test","null","","","na","","46","",""
"938.5","151833","HierDyug7j7x7w","sub10","10","2","rl","test","74","img/b_t_stripes.png","6","74","shape,pattern,color","47","1",""
"null","152843","HierDyug7j7x7w","sub10","10","2","feedback","test","null","","","na","","47","",""
"698.3000000044703","153543","HierDyug7j7x7w","sub10","10","2","rl","test","70","img/b_s_check.png","4","70","shape,pattern,color","48","1",""
"null","154547","HierDyug7j7x7w","sub10","10","2","feedback","test","null","","","na","","48","",""
"1579.2999999970198","156129","HierDyug7j7x7w","sub10","10","2","rl","test","74","img/b_t_stripes.png","6","74","shape,pattern,color","49","1",""
"null","157132","HierDyug7j7x7w","sub10","10","2","feedback","test","null","","","na","","49","",""
"992.2000000029802","158126","HierDyug7j7x7w","sub10","10","2","rl","test","65","img/p_s_stripes.png","1","65","shape,pattern,color","50","1",""
"null","159133","HierDyug7j7x7w","sub10","10","2","feedback","test","null","","","na","","50","",""
"818.8999999985099","159954","HierDyug7j7x7w","sub10","10","2","rl","test","70","img/p_s_check.png","3","68","shape,pattern,color","51","0",""
"null","160959","HierDyug7j7x7w","sub10","10","2","feedback","test","null","","","na","","51","",""
"1236.7999999970198","162197","HierDyug7j7x7w","sub10","10","2","rl","test","75","img/p_t_check.png","7","75","shape,pattern,color","52","1",""
"null","163207","HierDyug7j7x7w","sub10","10","2","feedback","test","null","","","na","","52","",""
"2407.7999999970198","165617","HierDyug7j7x7w","sub10","10","2","rl","test","76","img/b_t_check.png","8","76","shape,pattern,color","53","1",""
"null","166623","HierDyug7j7x7w","sub10","10","2","feedback","test","null","","","na","","53","",""
"600.0999999940395","167225","HierDyug7j7x7w","sub10","10","2","rl","test","70","img/b_s_check.png","4","70","shape,pattern,color","54","1",""
"null","168232","HierDyug7j7x7w","sub10","10","2","feedback","test","null","","","na","","54","",""
"1772.1999999955297","170006","HierDyug7j7x7w","sub10","10","2","rl","test","83","img/b_s_stripes.png","2","83","shape,pattern,color","55","1",""
"null","171008","HierDyug7j7x7w","sub10","10","2","feedback","test","null","","","na","","55","",""
"1279.5","172289","HierDyug7j7x7w","sub10","10","2","rl","test","76","img/b_t_check.png","8","76","shape,pattern,color","56","1",""
"null","173302","HierDyug7j7x7w","sub10","10","2","feedback","test","null","","","na","","56","",""
"2371","175674","HierDyug7j7x7w","sub10","10","2","rl","test","72","img/p_t_stripes.png","5","72","shape,pattern,color","57","1",""
"null","176683","HierDyug7j7x7w","sub10","10","2","feedback","test","null","","","na","","57","",""
"533.2000000029802","177218","HierDyug7j7x7w","sub10","10","2","rl","test","72","img/p_t_stripes.png","5","72","shape,pattern,color","58","1",""
"null","178225","HierDyug7j7x7w","sub10","10","2","feedback","test","null","","","na","","58","",""
"508.5","178735","HierDyug7j7x7w","sub10","10","2","rl","test","70","img/b_s_check.png","4","70","shape,pattern,color","59","1",""
"null","179739","HierDyug7j7x7w","sub10","10","2","feedback","test","null","","","na","","59","",""
"2391.60000000149","182132","HierDyug7j7x7w","sub10","10","2","rl","test","75","img/p_t_check.png","7","75","shape,pattern,color","60","1",""
"null","183140","HierDyug7j7x7w","sub10","10","2","feedback","test","null","","","na","","60","",""
"null","185650","HierDyug7j7x7w","sub10","10","2","rl","test","null","img/b_t_stripes.png","6","74","shape,pattern,color","61","0",""
"null","186661","HierDyug7j7x7w","sub10","10","2","feedback","test","null","","","na","","61","",""
"1017","187680","HierDyug7j7x7w","sub10","10","2","rl","test","65","img/b_s_stripes.png","2","83","shape,pattern,color","62","0",""
"null","188682","HierDyug7j7x7w","sub10","10","2","feedback","test","null","","","na","","62","",""
"1223.9000000059605","189908","HierDyug7j7x7w","sub10","10","2","rl","test","65","img/p_s_stripes.png","1","65","shape,pattern,color","63","1",""
"null","190914","HierDyug7j7x7w","sub10","10","2","feedback","test","null","","","na","","63","",""
"1150.1000000014901","192066","HierDyug7j7x7w","sub10","10","2","rl","test","68","img/p_s_check.png","3","68","shape,pattern,color","64","1",""
"null","193073","HierDyug7j7x7w","sub10","10","2","feedback","test","null","","","na","","64","",""
"605.8999999985099","193680","HierDyug7j7x7w","sub10","10","2","rl","test","68","img/p_s_check.png","3","68","shape,pattern,color","65","1",""
"null","194692","HierDyug7j7x7w","sub10","10","2","feedback","test","null","","","na","","65","",""
"1970.7000000029802","196664","HierDyug7j7x7w","sub10","10","2","rl","test","76","img/b_t_check.png","8","76","shape,pattern,color","66","1",""
"null","197677","HierDyug7j7x7w","sub10","10","2","feedback","test","null","","","na","","66","",""
"1601.7000000029802","199280","HierDyug7j7x7w","sub10","10","2","rl","test","83","img/p_s_stripes.png","1","65","shape,pattern,color","67","0",""
"null","200289","HierDyug7j7x7w","sub10","10","2","feedback","test","null","","","na","","67","",""
"727.2999999970198","201018","HierDyug7j7x7w","sub10","10","2","rl","test","70","img/b_s_check.png","4","70","shape,pattern,color","68","1",""
"null","202030","HierDyug7j7x7w","sub10","10","2","feedback","test","null","","","na","","68","",""
"911.2000000029802","202942","HierDyug7j7x7w","sub10","10","2","rl","test","72","img/p_t_stripes.png","5","72","shape,pattern,color","69","1",""
"null","203953","HierDyug7j7x7w","sub10","10","2","feedback","test","null","","","na","","69","",""
"951.6000000014901","204907","HierDyug7j7x7w","sub10","10","2","rl","test","75","img/p_t_check.png","7","75","shape,pattern,color","70","1",""
"null","205918","HierDyug7j7x7w","sub10","10","2","feedback","test","null","","","na","","70","",""
"959.7000000029802","206879","HierDyug7j7x7w","sub10","10","2","rl","test","76","img/b_t_check.png","8","76","shape,pattern,color","71","1",""
"null","207885","HierDyug7j7x7w","sub10","10","2","feedback","test","null","","","na","","71","",""
"1505.7000000029802","209409","HierDyug7j7x7w","sub10","10","2","rl","test","75","img/p_t_check.png","7","75","shape,pattern,color","72","1",""
"null","210419","HierDyug7j7x7w","sub10","10","2","feedback","test","null","","","na","","72","",""
"null","212930","HierDyug7j7x7w","sub10","10","2","rl","test","null","img/b_s_stripes.png","2","83","shape,pattern,color","73","0",""
"null","213937","HierDyug7j7x7w","sub10","10","2","feedback","test","null","","","na","","73","",""
"140.60000000149012","214080","HierDyug7j7x7w","sub10","10","2","rl","test","83","img/b_t_stripes.png","6","74","shape,pattern,color","74","0",""
"null","215091","HierDyug7j7x7w","sub10","10","2","feedback","test","null","","","na","","74","",""
"842.1000000014901","215934","HierDyug7j7x7w","sub10","10","2","rl","test","72","img/p_t_stripes.png","5","72","shape,pattern,color","75","1",""
"null","216938","HierDyug7j7x7w","sub10","10","2","feedback","test","null","","","na","","75","",""
"674.7999999970198","217614","HierDyug7j7x7w","sub10","10","2","rl","test","83","img/b_s_stripes.png","2","83","shape,pattern,color","76","1",""
"null","218617","HierDyug7j7x7w","sub10","10","2","feedback","test","null","","","na","","76","",""
"631.2000000029802","219250","HierDyug7j7x7w","sub10","10","2","rl","test","70","img/b_s_check.png","4","70","shape,pattern,color","77","1",""
"null","220257","HierDyug7j7x7w","sub10","10","2","feedback","test","null","","","na","","77","",""
"1064.7999999970198","221323","HierDyug7j7x7w","sub10","10","2","rl","test","74","img/b_t_stripes.png","6","74","shape,pattern,color","78","1",""
"null","222332","HierDyug7j7x7w","sub10","10","2","feedback","test","null","","","na","","78","",""
"1036.2000000029802","223370","HierDyug7j7x7w","sub10","10","2","rl","test","68","img/p_s_check.png","3","68","shape,pattern,color","79","1",""
"null","224378","HierDyug7j7x7w","sub10","10","2","feedback","test","null","","","na","","79","",""
"1209","225588","HierDyug7j7x7w","sub10","10","2","rl","test","75","img/p_t_check.png","7","75","shape,pattern,color","80","1",""
"null","226593","HierDyug7j7x7w","sub10","10","2","feedback","test","null","","","na","","80","",""
"1822.4000000059605","228417","HierDyug7j7x7w","sub10","10","2","rl","test","65","img/p_s_stripes.png","1","65","shape,pattern,color","81","1",""
"null","229425","HierDyug7j7x7w","sub10","10","2","feedback","test","null","","","na","","81","",""
"682.2000000029802","230108","HierDyug7j7x7w","sub10","10","2","rl","test","70","img/b_s_check.png","4","70","shape,pattern,color","82","1",""
"null","231114","HierDyug7j7x7w","sub10","10","2","feedback","test","null","","","na","","82","",""
"2103.5999999940395","233219","HierDyug7j7x7w","sub10","10","2","rl","test","83","img/p_s_stripes.png","1","65","shape,pattern,color","83","0",""
"null","234225","HierDyug7j7x7w","sub10","10","2","feedback","test","null","","","na","","83","",""
"752.5","234980","HierDyug7j7x7w","sub10","10","2","rl","test","65","img/p_s_stripes.png","1","65","shape,pattern,color","84","1",""
"null","235985","HierDyug7j7x7w","sub10","10","2","feedback","test","null","","","na","","84","",""
"1113.2999999970198","237099","HierDyug7j7x7w","sub10","10","2","rl","test","74","img/b_t_stripes.png","6","74","shape,pattern,color","85","1",""
"null","238106","HierDyug7j7x7w","sub10","10","2","feedback","test","null","","","na","","85","",""
"1187","239295","HierDyug7j7x7w","sub10","10","2","rl","test","76","img/b_t_check.png","8","76","shape,pattern,color","86","1",""
"null","240309","HierDyug7j7x7w","sub10","10","2","feedback","test","null","","","na","","86","",""
"1582.3999999985099","241893","HierDyug7j7x7w","sub10","10","2","rl","test","72","img/p_t_stripes.png","5","72","shape,pattern,color","87","1",""
"null","242897","HierDyug7j7x7w","sub10","10","2","feedback","test","null","","","na","","87","",""
"960.7999999970198","243859","HierDyug7j7x7w","sub10","10","2","rl","test","83","img/b_s_stripes.png","2","83","shape,pattern,color","88","1",""
"null","244864","HierDyug7j7x7w","sub10","10","2","feedback","test","null","","","na","","88","",""
"1250.1999999955297","246115","HierDyug7j7x7w","sub10","10","2","rl","test","68","img/p_s_check.png","3","68","shape,pattern,color","89","1",""
"null","247120","HierDyug7j7x7w","sub10","10","2","feedback","test","null","","","na","","89","",""
"1164","248285","HierDyug7j7x7w","sub10","10","2","rl","test","72","img/p_t_stripes.png","5","72","shape,pattern,color","90","1",""
"null","249289","HierDyug7j7x7w","sub10","10","2","feedback","test","null","","","na","","90","",""
"1279.8999999985099","250570","HierDyug7j7x7w","sub10","10","2","rl","test","76","img/p_t_check.png","7","75","shape,pattern,color","91","0",""
"null","251576","HierDyug7j7x7w","sub10","10","2","feedback","test","null","","","na","","91","",""
"921.5999999940395","252499","HierDyug7j7x7w","sub10","10","2","rl","test","76","img/b_t_check.png","8","76","shape,pattern,color","92","1",""
"null","253505","HierDyug7j7x7w","sub10","10","2","feedback","test","null","","","na","","92","",""
"975.2000000029802","254481","HierDyug7j7x7w","sub10","10","2","rl","test","68","img/p_s_check.png","3","68","shape,pattern,color","93","1",""
"null","255488","HierDyug7j7x7w","sub10","10","2","feedback","test","null","","","na","","93","",""
"2317.2000000029802","257807","HierDyug7j7x7w","sub10","10","2","rl","test","72","img/b_t_stripes.png","6","74","shape,pattern,color","94","0",""
"null","258817","HierDyug7j7x7w","sub10","10","2","feedback","test","null","","","na","","94","",""
"743.5","259562","HierDyug7j7x7w","sub10","10","2","rl","test","70","img/b_s_check.png","4","70","shape,pattern,color","95","1",""
"null","260569","HierDyug7j7x7w","sub10","10","2","feedback","test","null","","","na","","95","",""
"1213.8999999985099","261784","HierDyug7j7x7w","sub10","10","2","rl","test","83","img/b_s_stripes.png","2","83","shape,pattern,color","96","1",""
"null","262796","HierDyug7j7x7w","sub10","10","2","feedback","test","null","","","na","","96","",""
"1734.2000000029802","264532","HierDyug7j7x7w","sub10","10","2","rl","test","74","img/b_t_stripes.png","6","74","shape,pattern,color","97","1",""
"null","265538","HierDyug7j7x7w","sub10","10","2","feedback","test","null","","","na","","97","",""
"1506.1000000014901","267045","HierDyug7j7x7w","sub10","10","2","rl","test","68","img/p_s_check.png","3","68","shape,pattern,color","98","1",""
"null","268048","HierDyug7j7x7w","sub10","10","2","feedback","test","null","","","na","","98","",""
"1188.7999999970198","269238","HierDyug7j7x7w","sub10","10","2","rl","test","65","img/p_s_stripes.png","1","65","shape,pattern,color","99","1",""
"null","270248","HierDyug7j7x7w","sub10","10","2","feedback","test","null","","","na","","99","",""
"725.2999999970198","270975","HierDyug7j7x7w","sub10","10","2","rl","test","83","img/b_s_stripes.png","2","83","shape,pattern,color","100","1",""
"null","271988","HierDyug7j7x7w","sub10","10","2","feedback","test","null","","","na","","100","",""
"759.3000000044703","272749","HierDyug7j7x7w","sub10","10","2","rl","test","83","img/b_s_stripes.png","2","83","shape,pattern,color","101","1",""
"null","273751","HierDyug7j7x7w","sub10","10","2","feedback","test","null","","","na","","101","",""
"598.8999999985099","274351","HierDyug7j7x7w","sub10","10","2","rl","test","70","img/b_s_check.png","4","70","shape,pattern,color","102","1",""
"null","275359","HierDyug7j7x7w","sub10","10","2","feedback","test","null","","","na","","102","",""
"2156.60000000149","277517","HierDyug7j7x7w","sub10","10","2","rl","test","75","img/p_t_check.png","7","75","shape,pattern,color","103","1",""
"null","278521","HierDyug7j7x7w","sub10","10","2","feedback","test","null","","","na","","103","",""
"2223","280746","HierDyug7j7x7w","sub10","10","2","rl","test","72","img/p_t_stripes.png","5","72","shape,pattern,color","104","1",""
"null","281751","HierDyug7j7x7w","sub10","10","2","feedback","test","null","","","na","","104","",""
"1366.2000000029802","283118","HierDyug7j7x7w","sub10","10","2","rl","test","76","img/b_t_check.png","8","76","shape,pattern,color","105","1",""
"null","284127","HierDyug7j7x7w","sub10","10","2","feedback","test","null","","","na","","105","",""
"1249.6000000014901","285378","HierDyug7j7x7w","sub10","10","2","rl","test","72","img/p_t_stripes.png","5","72","shape,pattern,color","106","1",""
"null","286387","HierDyug7j7x7w","sub10","10","2","feedback","test","null","","","na","","106","",""
"954.8999999985099","287344","HierDyug7j7x7w","sub10","10","2","rl","test","65","img/p_s_stripes.png","1","65","shape,pattern,color","107","1",""
"null","288351","HierDyug7j7x7w","sub10","10","2","feedback","test","null","","","na","","107","",""
"2015.6999999955297","290368","HierDyug7j7x7w","sub10","10","2","rl","test","68","img/p_s_check.png","3","68","shape,pattern,color","108","1",""
"null","291375","HierDyug7j7x7w","sub10","10","2","feedback","test","null","","","na","","108","",""
"675.3999999985099","292052","HierDyug7j7x7w","sub10","10","2","rl","test","74","img/p_t_check.png","7","75","shape,pattern,color","109","0",""
"null","293060","HierDyug7j7x7w","sub10","10","2","feedback","test","null","","","na","","109","",""
"1189.2000000029802","294251","HierDyug7j7x7w","sub10","10","2","rl","test","76","img/b_t_check.png","8","76","shape,pattern,color","110","1",""
"null","295259","HierDyug7j7x7w","sub10","10","2","feedback","test","null","","","na","","110","",""
"1262.9000000059605","296523","HierDyug7j7x7w","sub10","10","2","rl","test","74","img/b_t_stripes.png","6","74","shape,pattern,color","111","1",""
"null","297527","HierDyug7j7x7w","sub10","10","2","feedback","test","null","","","na","","111","",""
"830.6999999955297","298359","HierDyug7j7x7w","sub10","10","2","rl","test","74","img/b_t_stripes.png","6","74","shape,pattern,color","112","1",""
"null","299370","HierDyug7j7x7w","sub10","10","2","feedback","test","null","","","na","","112","",""
"885","300257","HierDyug7j7x7w","sub10","10","2","rl","test","70","img/b_s_check.png","4","70","shape,pattern,color","113","1",""
"null","301262","HierDyug7j7x7w","sub10","10","2","feedback","test","null","","","na","","113","",""
"null","303772","HierDyug7j7x7w","sub10","10","2","rl","test","null","img/p_s_stripes.png","1","65","shape,pattern,color","114","0",""
"null","304774","HierDyug7j7x7w","sub10","10","2","feedback","test","null","","","na","","114","",""
"885.1000000014901","305661","HierDyug7j7x7w","sub10","10","2","rl","test","70","img/b_s_check.png","4","70","shape,pattern,color","115","1",""
"null","306671","HierDyug7j7x7w","sub10","10","2","feedback","test","null","","","na","","115","",""
"757.2999999970198","307430","HierDyug7j7x7w","sub10","10","2","rl","test","83","img/b_s_stripes.png","2","83","shape,pattern,color","116","1",""
"null","308438","HierDyug7j7x7w","sub10","10","2","feedback","test","null","","","na","","116","",""
"535.1999999955297","308974","HierDyug7j7x7w","sub10","10","2","rl","test","65","img/p_s_check.png","3","68","shape,pattern,color","117","0",""
"null","309982","HierDyug7j7x7w","sub10","10","2","feedback","test","null","","","na","","117","",""
"1189.5999999940395","311173","HierDyug7j7x7w","sub10","10","2","rl","test","76","img/b_t_check.png","8","76","shape,pattern,color","118","1",""
"null","312189","HierDyug7j7x7w","sub10","10","2","feedback","test","null","","","na","","118","",""
"1832.3000000044703","314023","HierDyug7j7x7w","sub10","10","2","rl","test","75","img/p_t_check.png","7","75","shape,pattern,color","119","1",""
"null","315029","HierDyug7j7x7w","sub10","10","2","feedback","test","null","","","na","","119","",""
"973.3000000044703","316004","HierDyug7j7x7w","sub10","10","2","rl","test","72","img/p_t_stripes.png","5","72","shape,pattern,color","120","1",""
"null","317006","HierDyug7j7x7w","sub10","10","2","feedback","test","null","","","na","","120","",""
"811.7999999970198","317820","HierDyug7j7x7w","sub10","10","2","rl","test","76","img/b_t_check.png","8","76","shape,pattern,color","121","1",""
"null","318826","HierDyug7j7x7w","sub10","10","2","feedback","test","null","","","na","","121","",""
"1263.8999999985099","320091","HierDyug7j7x7w","sub10","10","2","rl","test","74","img/p_t_stripes.png","5","72","shape,pattern,color","122","0",""
"null","321094","HierDyug7j7x7w","sub10","10","2","feedback","test","null","","","na","","122","",""
"808","321903","HierDyug7j7x7w","sub10","10","2","rl","test","74","img/b_t_stripes.png","6","74","shape,pattern,color","123","1",""
"null","322909","HierDyug7j7x7w","sub10","10","2","feedback","test","null","","","na","","123","",""
"716.1999999955297","323627","HierDyug7j7x7w","sub10","10","2","rl","test","70","img/b_s_check.png","4","70","shape,pattern,color","124","1",""
"null","324631","HierDyug7j7x7w","sub10","10","2","feedback","test","null","","","na","","124","",""
"2079.5","326713","HierDyug7j7x7w","sub10","10","2","rl","test","75","img/p_t_check.png","7","75","shape,pattern,color","125","1",""
"null","327717","HierDyug7j7x7w","sub10","10","2","feedback","test","null","","","na","","125","",""
"1281.3999999985099","329000","HierDyug7j7x7w","sub10","10","2","rl","test","65","img/p_s_stripes.png","1","65","shape,pattern,color","126","1",""
"null","330006","HierDyug7j7x7w","sub10","10","2","feedback","test","null","","","na","","126","",""
"983.8000000044703","330991","HierDyug7j7x7w","sub10","10","2","rl","test","68","img/p_s_check.png","3","68","shape,pattern,color","127","1",""
"null","331997","HierDyug7j7x7w","sub10","10","2","feedback","test","null","","","na","","127","",""
"1469.1000000014901","333468","HierDyug7j7x7w","sub10","10","2","rl","test","75","img/p_t_check.png","7","75","shape,pattern,color","128","1",""
"null","334478","HierDyug7j7x7w","sub10","10","2","feedback","test","null","","","na","","128","",""
"1138.7000000029802","335618","HierDyug7j7x7w","sub10","10","2","rl","test","83","img/b_s_stripes.png","2","83","shape,pattern,color","129","1",""
"null","336622","HierDyug7j7x7w","sub10","10","2","feedback","test","null","","","na","","129","",""
"933","337557","HierDyug7j7x7w","sub10","10","2","rl","test","65","img/p_s_stripes.png","1","65","shape,pattern,color","130","1",""
"null","338569","HierDyug7j7x7w","sub10","10","2","feedback","test","null","","","na","","130","",""
"704.8999999985099","339276","HierDyug7j7x7w","sub10","10","2","rl","test","70","img/b_s_check.png","4","70","shape,pattern,color","131","1",""
"null","340291","HierDyug7j7x7w","sub10","10","2","feedback","test","null","","","na","","131","",""
"804.8000000044703","341098","HierDyug7j7x7w","sub10","10","2","rl","test","68","img/p_s_check.png","3","68","shape,pattern,color","132","1",""
"null","342101","HierDyug7j7x7w","sub10","10","2","feedback","test","null","","","na","","132","",""
"1387.4000000059605","343491","HierDyug7j7x7w","sub10","10","2","rl","test","76","img/b_t_check.png","8","76","shape,pattern,color","133","1",""
"null","344502","HierDyug7j7x7w","sub10","10","2","feedback","test","null","","","na","","133","",""
"1065.7000000029802","345569","HierDyug7j7x7w","sub10","10","2","rl","test","83","img/b_s_stripes.png","2","83","shape,pattern,color","134","1",""
"null","346573","HierDyug7j7x7w","sub10","10","2","feedback","test","null","","","na","","134","",""
"2485.5","349061","HierDyug7j7x7w","sub10","10","2","rl","test","74","img/p_t_stripes.png","5","72","shape,pattern,color","135","0",""
"null","350068","HierDyug7j7x7w","sub10","10","2","feedback","test","null","","","na","","135","",""
"451.09999999403954","350521","HierDyug7j7x7w","sub10","10","2","rl","test","72","img/p_t_stripes.png","5","72","shape,pattern,color","136","1",""
"null","351526","HierDyug7j7x7w","sub10","10","2","feedback","test","null","","","na","","136","",""
"584.6000000014901","352112","HierDyug7j7x7w","sub10","10","2","rl","test","74","img/b_t_stripes.png","6","74","shape,pattern,color","137","1",""
"null","353121","HierDyug7j7x7w","sub10","10","2","feedback","test","null","","","na","","137","",""
"1811.3999999985099","354934","HierDyug7j7x7w","sub10","10","2","rl","test","65","img/p_s_stripes.png","1","65","shape,pattern,color","138","1",""
"null","355941","HierDyug7j7x7w","sub10","10","2","feedback","test","null","","","na","","138","",""
"2145.7999999970198","358088","HierDyug7j7x7w","sub10","10","2","rl","test","74","img/b_t_stripes.png","6","74","shape,pattern,color","139","1",""
"null","359093","HierDyug7j7x7w","sub10","10","2","feedback","test","null","","","na","","139","",""
"1688.8999999985099","360784","HierDyug7j7x7w","sub10","10","2","rl","test","76","img/b_t_check.png","8","76","shape,pattern,color","140","1",""
"null","361792","HierDyug7j7x7w","sub10","10","2","feedback","test","null","","","na","","140","",""
"null","364304","HierDyug7j7x7w","sub10","10","2","rl","test","null","img/p_s_check.png","3","68","shape,pattern,color","141","0",""
"null","365311","HierDyug7j7x7w","sub10","10","2","feedback","test","null","","","na","","141","",""
"613.3000000044703","365926","HierDyug7j7x7w","sub10","10","2","rl","test","70","img/b_s_check.png","4","70","shape,pattern,color","142","1",""
"null","366932","HierDyug7j7x7w","sub10","10","2","feedback","test","null","","","na","","142","",""
"1242.8999999985099","368176","HierDyug7j7x7w","sub10","10","2","rl","test","75","img/p_t_check.png","7","75","shape,pattern,color","143","1",""
"null","369180","HierDyug7j7x7w","sub10","10","2","feedback","test","null","","","na","","143","",""
"1629.8999999985099","370811","HierDyug7j7x7w","sub10","10","2","rl","test","83","img/p_s_stripes.png","1","65","shape,pattern,color","144","0",""
"null","371823","HierDyug7j7x7w","sub10","10","2","feedback","test","null","","","na","","144","",""
"813.3000000044703","372639","HierDyug7j7x7w","sub10","10","2","rl","test","68","img/p_s_check.png","3","68","shape,pattern,color","145","1",""
"null","373646","HierDyug7j7x7w","sub10","10","2","feedback","test","null","","","na","","145","",""
"836.3999999985099","374484","HierDyug7j7x7w","sub10","10","2","rl","test","83","img/b_s_stripes.png","2","83","shape,pattern,color","146","1",""
"null","375494","HierDyug7j7x7w","sub10","10","2","feedback","test","null","","","na","","146","",""
"538.5999999940395","376034","HierDyug7j7x7w","sub10","10","2","rl","test","83","img/b_s_stripes.png","2","83","shape,pattern,color","147","1",""
"null","377036","HierDyug7j7x7w","sub10","10","2","feedback","test","null","","","na","","147","",""
"1960.6000000014901","378998","HierDyug7j7x7w","sub10","10","2","rl","test","76","img/b_t_check.png","8","76","shape,pattern,color","148","1",""
"null","380004","HierDyug7j7x7w","sub10","10","2","feedback","test","null","","","na","","148","",""
"849.3000000044703","380855","HierDyug7j7x7w","sub10","10","2","rl","test","75","img/p_t_check.png","7","75","shape,pattern,color","149","1",""
"null","381860","HierDyug7j7x7w","sub10","10","2","feedback","test","null","","","na","","149","",""
"2024.6000000014901","383886","HierDyug7j7x7w","sub10","10","2","rl","test","83","img/b_s_stripes.png","2","83","shape,pattern,color","150","1",""
"null","384893","HierDyug7j7x7w","sub10","10","2","feedback","test","null","","","na","","150","",""
"null","387403","HierDyug7j7x7w","sub10","10","2","rl","test","null","img/p_t_stripes.png","5","72","shape,pattern,color","151","0",""
"null","388411","HierDyug7j7x7w","sub10","10","2","feedback","test","null","","","na","","151","",""
"659.8000000044703","389073","HierDyug7j7x7w","sub10","10","2","rl","test","70","img/b_s_check.png","4","70","shape,pattern,color","152","1",""
"null","390076","HierDyug7j7x7w","sub10","10","2","feedback","test","null","","","na","","152","",""
"2159.1999999955297","392237","HierDyug7j7x7w","sub10","10","2","rl","test","74","img/b_t_stripes.png","6","74","shape,pattern,color","153","1",""
"null","393247","HierDyug7j7x7w","sub10","10","2","feedback","test","null","","","na","","153","",""
"1532.5","394781","HierDyug7j7x7w","sub10","10","2","rl","test","68","img/p_s_check.png","3","68","shape,pattern,color","154","1",""
"null","395787","HierDyug7j7x7w","sub10","10","2","feedback","test","null","","","na","","154","",""
"600.1000000014901","396388","HierDyug7j7x7w","sub10","10","2","rl","test","70","img/b_s_check.png","4","70","shape,pattern,color","155","1",""
"null","397396","HierDyug7j7x7w","sub10","10","2","feedback","test","null","","","na","","155","",""
"2361.5","399759","HierDyug7j7x7w","sub10","10","2","rl","test","65","img/p_t_stripes.png","5","72","shape,pattern,color","156","0",""
"null","400763","HierDyug7j7x7w","sub10","10","2","feedback","test","null","","","na","","156","",""
"1046.7999999970198","401811","HierDyug7j7x7w","sub10","10","2","rl","test","74","img/b_t_stripes.png","6","74","shape,pattern,color","157","1",""
"null","402821","HierDyug7j7x7w","sub10","10","2","feedback","test","null","","","na","","157","",""
"1119.3999999985099","403942","HierDyug7j7x7w","sub10","10","2","rl","test","76","img/p_t_check.png","7","75","shape,pattern,color","158","0",""
"null","404950","HierDyug7j7x7w","sub10","10","2","feedback","test","null","","","na","","158","",""
"1056.2000000029802","406008","HierDyug7j7x7w","sub10","10","2","rl","test","65","img/p_s_stripes.png","1","65","shape,pattern,color","159","1",""
"null","407011","HierDyug7j7x7w","sub10","10","2","feedback","test","null","","","na","","159","",""
"955","407967","HierDyug7j7x7w","sub10","10","2","rl","test","75","img/p_t_check.png","7","75","shape,pattern,color","160","1",""
"null","408971","HierDyug7j7x7w","sub10","10","2","feedback","test","null","","","na","","160","",""
"1479.6999999955297","410452","HierDyug7j7x7w","sub10","10","2","rl","test","76","img/b_t_check.png","8","76","shape,pattern,color","161","1",""
"null","411460","HierDyug7j7x7w","sub10","10","2","feedback","test","null","","","na","","161","",""
"686.3000000044703","412148","HierDyug7j7x7w","sub10","10","2","rl","test","76","img/b_t_check.png","8","76","shape,pattern,color","162","1",""
"null","413155","HierDyug7j7x7w","sub10","10","2","feedback","test","null","","","na","","162","",""
"1568.6000000014901","414725","HierDyug7j7x7w","sub10","10","2","rl","test","72","img/p_t_stripes.png","5","72","shape,pattern,color","163","1",""
"null","415731","HierDyug7j7x7w","sub10","10","2","feedback","test","null","","","na","","163","",""
"1832.5","417565","HierDyug7j7x7w","sub10","10","2","rl","test","65","img/p_s_stripes.png","1","65","shape,pattern,color","164","1",""
"null","418574","HierDyug7j7x7w","sub10","10","2","feedback","test","null","","","na","","164","",""
"1156.1000000014901","419732","HierDyug7j7x7w","sub10","10","2","rl","test","83","img/b_s_stripes.png","2","83","shape,pattern,color","165","1",""
"null","420740","HierDyug7j7x7w","sub10","10","2","feedback","test","null","","","na","","165","",""
"703.7000000029802","421445","HierDyug7j7x7w","sub10","10","2","rl","test","70","img/b_s_check.png","4","70","shape,pattern,color","166","1",""
"null","422451","HierDyug7j7x7w","sub10","10","2","feedback","test","null","","","na","","166","",""
"1826.8999999985099","424279","HierDyug7j7x7w","sub10","10","2","rl","test","68","img/p_s_check.png","3","68","shape,pattern,color","167","1",""
"null","425283","HierDyug7j7x7w","sub10","10","2","feedback","test","null","","","na","","167","",""
"2074.7999999970198","427359","HierDyug7j7x7w","sub10","10","2","rl","test","74","img/b_t_stripes.png","6","74","shape,pattern,color","168","1",""
"null","428363","HierDyug7j7x7w","sub10","10","2","feedback","test","null","","","na","","168","",""
"871.0999999940395","429236","HierDyug7j7x7w","sub10","10","2","rl","test","68","img/p_s_check.png","3","68","shape,pattern,color","169","1",""
"null","430243","HierDyug7j7x7w","sub10","10","2","feedback","test","null","","","na","","169","",""
"844.6000000014901","431089","HierDyug7j7x7w","sub10","10","2","rl","test","72","img/p_t_stripes.png","5","72","shape,pattern,color","170","1",""
"null","432098","HierDyug7j7x7w","sub10","10","2","feedback","test","null","","","na","","170","",""
"551","432650","HierDyug7j7x7w","sub10","10","2","rl","test","74","img/b_t_stripes.png","6","74","shape,pattern,color","171","1",""
"null","433658","HierDyug7j7x7w","sub10","10","2","feedback","test","null","","","na","","171","",""
"828.7000000029802","434488","HierDyug7j7x7w","sub10","10","2","rl","test","75","img/p_t_check.png","7","75","shape,pattern,color","172","1",""
"null","435494","HierDyug7j7x7w","sub10","10","2","feedback","test","null","","","na","","172","",""
"904.8999999985099","436401","HierDyug7j7x7w","sub10","10","2","rl","test","83","img/b_s_stripes.png","2","83","shape,pattern,color","173","1",""
"null","437416","HierDyug7j7x7w","sub10","10","2","feedback","test","null","","","na","","173","",""
"1008.3999999985099","438426","HierDyug7j7x7w","sub10","10","2","rl","test","65","img/p_s_stripes.png","1","65","shape,pattern,color","174","1",""
"null","439433","HierDyug7j7x7w","sub10","10","2","feedback","test","null","","","na","","174","",""
"667.6999999955297","440102","HierDyug7j7x7w","sub10","10","2","rl","test","65","img/p_s_stripes.png","1","65","shape,pattern,color","175","1",""
"null","441107","HierDyug7j7x7w","sub10","10","2","feedback","test","null","","","na","","175","",""
"1100.8999999985099","442209","HierDyug7j7x7w","sub10","10","2","rl","test","76","img/b_t_check.png","8","76","shape,pattern,color","176","1",""
"null","443217","HierDyug7j7x7w","sub10","10","2","feedback","test","null","","","na","","176","",""
"1018","444237","HierDyug7j7x7w","sub10","10","2","rl","test","83","img/b_s_stripes.png","2","83","shape,pattern,color","177","1",""
"null","445245","HierDyug7j7x7w","sub10","10","2","feedback","test","null","","","na","","177","",""
"689.5999999940395","445936","HierDyug7j7x7w","sub10","10","2","rl","test","70","img/b_s_check.png","4","70","shape,pattern,color","178","1",""
"null","446947","HierDyug7j7x7w","sub10","10","2","feedback","test","null","","","na","","178","",""
"510","447458","HierDyug7j7x7w","sub10","10","2","rl","test","70","img/b_s_check.png","4","70","shape,pattern,color","179","1",""
"null","448465","HierDyug7j7x7w","sub10","10","2","feedback","test","null","","","na","","179","",""
"1263.9000000059605","449730","HierDyug7j7x7w","sub10","10","2","rl","test","76","img/b_t_check.png","8","76","shape,pattern,color","180","1",""
"null","450737","HierDyug7j7x7w","sub10","10","2","feedback","test","null","","","na","","180","",""
"879.2000000029802","451618","HierDyug7j7x7w","sub10","10","2","rl","test","65","img/p_s_stripes.png","1","65","shape,pattern,color","181","1",""
"null","452625","HierDyug7j7x7w","sub10","10","2","feedback","test","null","","","na","","181","",""
"1358.1000000014901","453984","HierDyug7j7x7w","sub10","10","2","rl","test","75","img/p_t_check.png","7","75","shape,pattern,color","182","1",""
"null","454997","HierDyug7j7x7w","sub10","10","2","feedback","test","null","","","na","","182","",""
"898.7999999970198","455898","HierDyug7j7x7w","sub10","10","2","rl","test","72","img/p_t_stripes.png","5","72","shape,pattern,color","183","1",""
"null","456906","HierDyug7j7x7w","sub10","10","2","feedback","test","null","","","na","","183","",""
"975.5999999940395","457883","HierDyug7j7x7w","sub10","10","2","rl","test","68","img/p_s_check.png","3","68","shape,pattern,color","184","1",""
"null","458890","HierDyug7j7x7w","sub10","10","2","feedback","test","null","","","na","","184","",""
"795.3999999985099","459687","HierDyug7j7x7w","sub10","10","2","rl","test","74","img/b_t_stripes.png","6","74","shape,pattern,color","185","1",""
"null","460697","HierDyug7j7x7w","sub10","10","2","feedback","test","null","","","na","","185","",""
"637.8000000044703","461336","HierDyug7j7x7w","sub10","10","2","rl","test","70","img/b_t_check.png","8","76","shape,pattern,color","186","0",""
"null","462345","HierDyug7j7x7w","sub10","10","2","feedback","test","null","","","na","","186","",""
"1289.7000000029802","463636","HierDyug7j7x7w","sub10","10","2","rl","test","75","img/p_t_check.png","7","75","shape,pattern,color","187","1",""
"null","464646","HierDyug7j7x7w","sub10","10","2","feedback","test","null","","","na","","187","",""
"427.20000000298023","465074","HierDyug7j7x7w","sub10","10","2","rl","test","70","img/b_s_check.png","4","70","shape,pattern,color","188","1",""
"null","466085","HierDyug7j7x7w","sub10","10","2","feedback","test","null","","","na","","188","",""
"1425.3999999985099","467512","HierDyug7j7x7w","sub10","10","2","rl","test","74","img/b_t_stripes.png","6","74","shape,pattern,color","189","1",""
"null","468521","HierDyug7j7x7w","sub10","10","2","feedback","test","null","","","na","","189","",""
"593.8999999985099","469117","HierDyug7j7x7w","sub10","10","2","rl","test","72","img/p_t_stripes.png","5","72","shape,pattern,color","190","1",""
"null","470120","HierDyug7j7x7w","sub10","10","2","feedback","test","null","","","na","","190","",""
"2280.60000000149","472403","HierDyug7j7x7w","sub10","10","2","rl","test","83","img/b_s_stripes.png","2","83","shape,pattern,color","191","1",""
"null","473409","HierDyug7j7x7w","sub10","10","2","feedback","test","null","","","na","","191","",""
"897.6000000014901","474308","HierDyug7j7x7w","sub10","10","2","rl","test","68","img/p_s_check.png","3","68","shape,pattern,color","192","1",""
"null","475313","HierDyug7j7x7w","sub10","10","2","feedback","test","null","","","na","","192","",""
"677.1000000014901","475992","HierDyug7j7x7w","sub10","10","2","rl","test","83","img/b_s_stripes.png","2","83","shape,pattern,color","193","1",""
"null","477000","HierDyug7j7x7w","sub10","10","2","feedback","test","null","","","na","","193","",""
"1225.6000000014901","478227","HierDyug7j7x7w","sub10","10","2","rl","test","68","img/p_s_check.png","3","68","shape,pattern,color","194","1",""
"null","479233","HierDyug7j7x7w","sub10","10","2","feedback","test","null","","","na","","194","",""
"2449.3000000044703","481684","HierDyug7j7x7w","sub10","10","2","rl","test","74","img/p_t_stripes.png","5","72","shape,pattern,color","195","0",""
"null","482692","HierDyug7j7x7w","sub10","10","2","feedback","test","null","","","na","","195","",""
"2383.7999999970198","485077","HierDyug7j7x7w","sub10","10","2","rl","test","72","img/p_s_stripes.png","1","65","shape,pattern,color","196","0",""
"null","486080","HierDyug7j7x7w","sub10","10","2","feedback","test","null","","","na","","196","",""
"1212.3999999985099","487294","HierDyug7j7x7w","sub10","10","2","rl","test","76","img/b_t_check.png","8","76","shape,pattern,color","197","1",""
"null","488296","HierDyug7j7x7w","sub10","10","2","feedback","test","null","","","na","","197","",""
"728.8999999985099","489026","HierDyug7j7x7w","sub10","10","2","rl","test","75","img/p_t_check.png","7","75","shape,pattern,color","198","1",""
"null","490032","HierDyug7j7x7w","sub10","10","2","feedback","test","null","","","na","","198","",""
"918","490952","HierDyug7j7x7w","sub10","10","2","rl","test","74","img/b_t_stripes.png","6","74","shape,pattern,color","199","1",""
"null","491961","HierDyug7j7x7w","sub10","10","2","feedback","test","null","","","na","","199","",""
"545.7000000029802","492508","HierDyug7j7x7w","sub10","10","2","rl","test","70","img/b_s_check.png","4","70","shape,pattern,color","200","1",""
"null","493516","HierDyug7j7x7w","sub10","10","2","feedback","test","null","","","na","","200","",""
"1317.6999999955297","494835","HierDyug7j7x7w","sub10","10","2","rl","test","75","img/p_t_check.png","7","75","shape,pattern,color","201","1",""
"null","495840","HierDyug7j7x7w","sub10","10","2","feedback","test","null","","","na","","201","",""
"null","498345","HierDyug7j7x7w","sub10","10","2","rl","test","null","img/p_s_check.png","3","68","shape,pattern,color","202","0",""
"null","499354","HierDyug7j7x7w","sub10","10","2","feedback","test","null","","","na","","202","",""
"998.3000000044703","500354","HierDyug7j7x7w","sub10","10","2","rl","test","76","img/b_t_check.png","8","76","shape,pattern,color","203","1",""
"null","501363","HierDyug7j7x7w","sub10","10","2","feedback","test","null","","","na","","203","",""
"873.6999999955297","502239","HierDyug7j7x7w","sub10","10","2","rl","test","72","img/p_t_stripes.png","5","72","shape,pattern,color","204","1",""
"null","503248","HierDyug7j7x7w","sub10","10","2","feedback","test","null","","","na","","204","",""
"2006.3000000044703","505255","HierDyug7j7x7w","sub10","10","2","rl","test","65","img/p_s_stripes.png","1","65","shape,pattern,color","205","1",""
"null","506263","HierDyug7j7x7w","sub10","10","2","feedback","test","null","","","na","","205","",""
"549.5","506814","HierDyug7j7x7w","sub10","10","2","rl","test","83","img/b_s_stripes.png","2","83","shape,pattern,color","206","1",""
"null","507827","HierDyug7j7x7w","sub10","10","2","feedback","test","null","","","na","","206","",""
"638.7999999970198","508467","HierDyug7j7x7w","sub10","10","2","rl","test","70","img/b_s_check.png","4","70","shape,pattern,color","207","1",""
"null","509473","HierDyug7j7x7w","sub10","10","2","feedback","test","null","","","na","","207","",""
"533.1000000014901","510008","HierDyug7j7x7w","sub10","10","2","rl","test","70","img/b_s_check.png","4","70","shape,pattern,color","208","1",""
"null","511019","HierDyug7j7x7w","sub10","10","2","feedback","test","null","","","na","","208","",""
"2012.1000000014901","513033","HierDyug7j7x7w","sub10","10","2","rl","test","72","img/b_t_stripes.png","6","74","shape,pattern,color","209","0",""
"null","514040","HierDyug7j7x7w","sub10","10","2","feedback","test","null","","","na","","209","",""
"1343.2999999970198","515385","HierDyug7j7x7w","sub10","10","2","rl","test","83","img/b_s_stripes.png","2","83","shape,pattern,color","210","1",""
"null","516391","HierDyug7j7x7w","sub10","10","2","feedback","test","null","","","na","","210","",""
"743.1000000014901","517135","HierDyug7j7x7w","sub10","10","2","rl","test","65","img/p_s_stripes.png","1","65","shape,pattern,color","211","1",""
"null","518148","HierDyug7j7x7w","sub10","10","2","feedback","test","null","","","na","","211","",""
"965.3999999985099","519115","HierDyug7j7x7w","sub10","10","2","rl","test","74","img/b_t_stripes.png","6","74","shape,pattern,color","212","1",""
"null","520122","HierDyug7j7x7w","sub10","10","2","feedback","test","null","","","na","","212","",""
"1087.5","521211","HierDyug7j7x7w","sub10","10","2","rl","test","75","img/p_s_check.png","3","68","shape,pattern,color","213","0",""
"null","522218","HierDyug7j7x7w","sub10","10","2","feedback","test","null","","","na","","213","",""
"2455.3000000044703","524674","HierDyug7j7x7w","sub10","10","2","rl","test","75","img/p_t_check.png","7","75","shape,pattern,color","214","1",""
"null","525679","HierDyug7j7x7w","sub10","10","2","feedback","test","null","","","na","","214","",""
"1004.6000000014901","526684","HierDyug7j7x7w","sub10","10","2","rl","test","76","img/b_t_check.png","8","76","shape,pattern,color","215","1",""
"null","527700","HierDyug7j7x7w","sub10","10","2","feedback","test","null","","","na","","215","",""
"1530.6000000014901","529232","HierDyug7j7x7w","sub10","10","2","rl","test","72","img/p_t_stripes.png","5","72","shape,pattern,color","216","1",""
"null","530240","HierDyug7j7x7w","sub10","10","2","feedback","test","null","","","na","","216","",""
"895.2999999970198","531136","HierDyug7j7x7w","sub10","10","2","rl","test","83","img/b_s_stripes.png","2","83","shape,pattern,color","217","1",""
"null","532143","HierDyug7j7x7w","sub10","10","2","feedback","test","null","","","na","","217","",""
"802","532947","HierDyug7j7x7w","sub10","10","2","rl","test","72","img/p_t_stripes.png","5","72","shape,pattern,color","218","1",""
"null","533950","HierDyug7j7x7w","sub10","10","2","feedback","test","null","","","na","","218","",""
"1456.7999999970198","535409","HierDyug7j7x7w","sub10","10","2","rl","test","83","img/p_s_stripes.png","1","65","shape,pattern,color","219","0",""
"null","536418","HierDyug7j7x7w","sub10","10","2","feedback","test","null","","","na","","219","",""
"1308.2999999970198","537728","HierDyug7j7x7w","sub10","10","2","rl","test","76","img/b_t_check.png","8","76","shape,pattern,color","220","1",""
"null","538735","HierDyug7j7x7w","sub10","10","2","feedback","test","null","","","na","","220","",""
"1805.2000000029802","540541","HierDyug7j7x7w","sub10","10","2","rl","test","74","img/b_t_stripes.png","6","74","shape,pattern,color","221","1",""
"null","541551","HierDyug7j7x7w","sub10","10","2","feedback","test","null","","","na","","221","",""
"636.4000000059605","542189","HierDyug7j7x7w","sub10","10","2","rl","test","70","img/b_s_check.png","4","70","shape,pattern,color","222","1",""
"null","543199","HierDyug7j7x7w","sub10","10","2","feedback","test","null","","","na","","222","",""
"666.6999999955297","543867","HierDyug7j7x7w","sub10","10","2","rl","test","70","img/b_s_check.png","4","70","shape,pattern,color","223","1",""
"null","544871","HierDyug7j7x7w","sub10","10","2","feedback","test","null","","","na","","223","",""
"2080.60000000149","546953","HierDyug7j7x7w","sub10","10","2","rl","test","75","img/p_t_check.png","7","75","shape,pattern,color","224","1",""
"null","547959","HierDyug7j7x7w","sub10","10","2","feedback","test","null","","","na","","224","",""
"587.6999999955297","548548","HierDyug7j7x7w","sub10","10","2","rl","test","76","img/b_t_check.png","8","76","shape,pattern,color","225","1",""
"null","549560","HierDyug7j7x7w","sub10","10","2","feedback","test","null","","","na","","225","",""
"869.2000000029802","550430","HierDyug7j7x7w","sub10","10","2","rl","test","68","img/p_s_check.png","3","68","shape,pattern,color","226","1",""
"null","551438","HierDyug7j7x7w","sub10","10","2","feedback","test","null","","","na","","226","",""
"984.6000000014901","552424","HierDyug7j7x7w","sub10","10","2","rl","test","75","img/p_t_check.png","7","75","shape,pattern,color","227","1",""
"null","553431","HierDyug7j7x7w","sub10","10","2","feedback","test","null","","","na","","227","",""
"1104.7999999970198","554537","HierDyug7j7x7w","sub10","10","2","rl","test","74","img/b_t_stripes.png","6","74","shape,pattern,color","228","1",""
"null","555544","HierDyug7j7x7w","sub10","10","2","feedback","test","null","","","na","","228","",""
"1192.6000000014901","556738","HierDyug7j7x7w","sub10","10","2","rl","test","68","img/p_s_check.png","3","68","shape,pattern,color","229","1",""
"null","557743","HierDyug7j7x7w","sub10","10","2","feedback","test","null","","","na","","229","",""
"1086.0999999940395","558831","HierDyug7j7x7w","sub10","10","2","rl","test","65","img/p_s_stripes.png","1","65","shape,pattern,color","230","1",""
"null","559838","HierDyug7j7x7w","sub10","10","2","feedback","test","null","","","na","","230","",""
"732.6000000014901","560572","HierDyug7j7x7w","sub10","10","2","rl","test","83","img/b_s_stripes.png","2","83","shape,pattern,color","231","1",""
"null","561575","HierDyug7j7x7w","sub10","10","2","feedback","test","null","","","na","","231","",""
"2448","564024","HierDyug7j7x7w","sub10","10","2","rl","test","74","img/b_t_stripes.png","6","74","shape,pattern,color","232","1",""
"null","565029","HierDyug7j7x7w","sub10","10","2","feedback","test","null","","","na","","232","",""
"410.3999999985099","565442","HierDyug7j7x7w","sub10","10","2","rl","test","72","img/p_t_stripes.png","5","72","shape,pattern,color","233","1",""
"null","566446","HierDyug7j7x7w","sub10","10","2","feedback","test","null","","","na","","233","",""
"804.2000000029802","567254","HierDyug7j7x7w","sub10","10","2","rl","test","72","img/p_t_stripes.png","5","72","shape,pattern,color","234","1",""
"null","568262","HierDyug7j7x7w","sub10","10","2","feedback","test","null","","","na","","234","",""
"2277.3000000044703","570539","HierDyug7j7x7w","sub10","10","2","rl","test","68","img/p_s_check.png","3","68","shape,pattern,color","235","1",""
"null","571543","HierDyug7j7x7w","sub10","10","2","feedback","test","null","","","na","","235","",""
"724","572269","HierDyug7j7x7w","sub10","10","2","rl","test","72","img/p_t_stripes.png","5","72","shape,pattern,color","236","1",""
"null","573277","HierDyug7j7x7w","sub10","10","2","feedback","test","null","","","na","","236","",""
"816.7000000029802","574096","HierDyug7j7x7w","sub10","10","2","rl","test","68","img/p_s_stripes.png","1","65","shape,pattern,color","237","0",""
"null","575105","HierDyug7j7x7w","sub10","10","2","feedback","test","null","","","na","","237","",""
"680.8999999985099","575786","HierDyug7j7x7w","sub10","10","2","rl","test","70","img/b_s_check.png","4","70","shape,pattern,color","238","1",""
"null","576790","HierDyug7j7x7w","sub10","10","2","feedback","test","null","","","na","","238","",""
"1854.7000000029802","578646","HierDyug7j7x7w","sub10","10","2","rl","test","83","img/b_s_stripes.png","2","83","shape,pattern,color","239","1",""
"null","579657","HierDyug7j7x7w","sub10","10","2","feedback","test","null","","","na","","239","",""
"1326.1000000014901","580985","HierDyug7j7x7w","sub10","10","2","rl","test","76","img/b_t_check.png","8","76","shape,pattern,color","240","1",""
"null","581993","HierDyug7j7x7w","sub10","10","2","feedback","test","null","","","na","","240","",""
"2019.3000000044703","584014","HierDyug7j7x7w","sub10","10","2","rl","test","75","img/p_t_check.png","7","75","shape,pattern,color","241","1",""
"null","585022","HierDyug7j7x7w","sub10","10","2","feedback","test","null","","","na","","241","",""
"585.1999999955297","585609","HierDyug7j7x7w","sub10","10","2","rl","test","76","img/b_t_check.png","8","76","shape,pattern,color","242","1",""
"null","586614","HierDyug7j7x7w","sub10","10","2","feedback","test","null","","","na","","242","",""
"635.3999999985099","587251","HierDyug7j7x7w","sub10","10","2","rl","test","70","img/b_s_check.png","4","70","shape,pattern,color","243","1",""
"null","588253","HierDyug7j7x7w","sub10","10","2","feedback","test","null","","","na","","243","",""
"718.5","588973","HierDyug7j7x7w","sub10","10","2","rl","test","75","img/p_t_check.png","7","75","shape,pattern,color","244","1",""
"null","589983","HierDyug7j7x7w","sub10","10","2","feedback","test","null","","","na","","244","",""
"987.3000000044703","590971","HierDyug7j7x7w","sub10","10","2","rl","test","65","img/p_s_stripes.png","1","65","shape,pattern,color","245","1",""
"null","591981","HierDyug7j7x7w","sub10","10","2","feedback","test","null","","","na","","245","",""
"1937.6000000014901","593920","HierDyug7j7x7w","sub10","10","2","rl","test","68","img/p_s_check.png","3","68","shape,pattern,color","246","1",""
"null","594925","HierDyug7j7x7w","sub10","10","2","feedback","test","null","","","na","","246","",""
"1180.7999999970198","596108","HierDyug7j7x7w","sub10","10","2","rl","test","74","img/b_t_stripes.png","6","74","shape,pattern,color","247","1",""
"null","597121","HierDyug7j7x7w","sub10","10","2","feedback","test","null","","","na","","247","",""
"905.7000000029802","598028","HierDyug7j7x7w","sub10","10","2","rl","test","83","img/b_s_stripes.png","2","83","shape,pattern,color","248","1",""
"null","599041","HierDyug7j7x7w","sub10","10","2","feedback","test","null","","","na","","248","",""
"29922.89999999851","628971","HierDyug7j7x7w","sub10","10","2","","","","","","","","","","{""Q0"":""10""}"
"47886.60000000149","676861","HierDyug7j7x7w","sub10","10","2","","","","","","","","","","{""Q0"":""I remembered the correct answers from yesterday so I was mostly just memorizing the respective keys with its respective shape/pattern. ""}"
"29866.5","706727","HierDyug7j7x7w","sub10","10","2","","","","","","","","","",""
