"rt","time_elapsed","subject","subID","group","day","trialType","phase","key_press","stim","stimNum","corrresp","hierarchy","trialNum","corr","responses"
"33755.199999809265","33757","HierDy549h95o9","sub20","08","04","","","","","","","","","",""
"","36371","HierDy549h95o9","sub20","08","04","fullscreen","","","","","","","","",""
"156504.89999961853","192878","HierDy549h95o9","sub20","08","04","","prac","","","","","","","",""
"95675.9000005722","288558","HierDy549h95o9","sub20","08","04","","","32","","","","","","",""
"52880.800000190735","341439","HierDy549h95o9","sub20","08","04","","prac","","","","","","","",""
"1357.3999996185303","342800","HierDy549h95o9","sub20","08","04","rl","test","70","img/p_t_check.png","2","83","pattern,color,shape","1","0",""
"null","343803","HierDy549h95o9","sub20","08","04","feedback","test","null","","","na","","1","",""
"1552.8000001907349","345357","HierDy549h95o9","sub20","08","04","rl","test","75","img/r_d_diag.png","7","75","pattern,color,shape","2","1",""
"null","346364","HierDy549h95o9","sub20","08","04","feedback","test","null","","","na","","2","",""
"1739.5","348104","HierDy549h95o9","sub20","08","04","rl","test","74","img/p_t_diag.png","6","74","pattern,color,shape","3","1",""
"null","349107","HierDy549h95o9","sub20","08","04","feedback","test","null","","","na","","3","",""
"1003","350111","HierDy549h95o9","sub20","08","04","rl","test","68","img/r_d_check.png","3","68","pattern,color,shape","4","1",""
"null","351114","HierDy549h95o9","sub20","08","04","feedback","test","null","","","na","","4","",""
"1178.1000003814697","352293","HierDy549h95o9","sub20","08","04","rl","test","65","img/p_d_check.png","1","65","pattern,color,shape","5","1",""
"null","353299","HierDy549h95o9","sub20","08","04","feedback","test","null","","","na","","5","",""
"778.3000001907349","354078","HierDy549h95o9","sub20","08","04","rl","test","70","img/r_t_check.png","4","70","pattern,color,shape","6","1",""
"null","355082","HierDy549h95o9","sub20","08","04","feedback","test","null","","","na","","6","",""
"1702.5999994277954","356786","HierDy549h95o9","sub20","08","04","rl","test","74","img/p_t_diag.png","6","74","pattern,color,shape","7","1",""
"null","357795","HierDy549h95o9","sub20","08","04","feedback","test","null","","","na","","7","",""
"1214.6000003814697","359011","HierDy549h95o9","sub20","08","04","rl","test","76","img/r_t_diag.png","8","76","pattern,color,shape","8","1",""
"null","360019","HierDy549h95o9","sub20","08","04","feedback","test","null","","","na","","8","",""
"1384","361404","HierDy549h95o9","sub20","08","04","rl","test","72","img/p_d_diag.png","5","72","pattern,color,shape","9","1",""
"null","362411","HierDy549h95o9","sub20","08","04","feedback","test","null","","","na","","9","",""
"959.0999994277954","363371","HierDy549h95o9","sub20","08","04","rl","test","68","img/r_d_check.png","3","68","pattern,color,shape","10","1",""
"null","364379","HierDy549h95o9","sub20","08","04","feedback","test","null","","","na","","10","",""
"2196.2000007629395","366576","HierDy549h95o9","sub20","08","04","rl","test","72","img/p_d_diag.png","5","72","pattern,color,shape","11","1",""
"null","367579","HierDy549h95o9","sub20","08","04","feedback","test","null","","","na","","11","",""
"1582.5","369162","HierDy549h95o9","sub20","08","04","rl","test","83","img/p_t_check.png","2","83","pattern,color,shape","12","1",""
"null","370171","HierDy549h95o9","sub20","08","04","feedback","test","null","","","na","","12","",""
"1186.6999998092651","371358","HierDy549h95o9","sub20","08","04","rl","test","68","img/r_d_check.png","3","68","pattern,color,shape","13","1",""
"null","372363","HierDy549h95o9","sub20","08","04","feedback","test","null","","","na","","13","",""
"1424.8000001907349","373789","HierDy549h95o9","sub20","08","04","rl","test","65","img/p_d_check.png","1","65","pattern,color,shape","14","1",""
"null","374796","HierDy549h95o9","sub20","08","04","feedback","test","null","","","na","","14","",""
"1444.5","376241","HierDy549h95o9","sub20","08","04","rl","test","74","img/r_d_diag.png","7","75","pattern,color,shape","15","0",""
"null","377251","HierDy549h95o9","sub20","08","04","feedback","test","null","","","na","","15","",""
"923.5","378175","HierDy549h95o9","sub20","08","04","rl","test","72","img/r_t_diag.png","8","76","pattern,color,shape","16","0",""
"null","379179","HierDy549h95o9","sub20","08","04","feedback","test","null","","","na","","16","",""
"1242.8999996185303","380423","HierDy549h95o9","sub20","08","04","rl","test","68","img/r_t_check.png","4","70","pattern,color,shape","17","0",""
"null","381426","HierDy549h95o9","sub20","08","04","feedback","test","null","","","na","","17","",""
"1341.5","382769","HierDy549h95o9","sub20","08","04","rl","test","70","img/r_t_check.png","4","70","pattern,color,shape","18","1",""
"null","383779","HierDy549h95o9","sub20","08","04","feedback","test","null","","","na","","18","",""
"1178.3000001907349","384958","HierDy549h95o9","sub20","08","04","rl","test","83","img/p_t_check.png","2","83","pattern,color,shape","19","1",""
"null","385963","HierDy549h95o9","sub20","08","04","feedback","test","null","","","na","","19","",""
"978.6999998092651","386943","HierDy549h95o9","sub20","08","04","rl","test","75","img/r_t_diag.png","8","76","pattern,color,shape","20","0",""
"null","387947","HierDy549h95o9","sub20","08","04","feedback","test","null","","","na","","20","",""
"1060.2000007629395","389009","HierDy549h95o9","sub20","08","04","rl","test","72","img/p_t_diag.png","6","74","pattern,color,shape","21","0",""
"null","390011","HierDy549h95o9","sub20","08","04","feedback","test","null","","","na","","21","",""
"1909.3000001907349","391921","HierDy549h95o9","sub20","08","04","rl","test","65","img/p_d_check.png","1","65","pattern,color,shape","22","1",""
"null","392923","HierDy549h95o9","sub20","08","04","feedback","test","null","","","na","","22","",""
"1973.9000005722046","394898","HierDy549h95o9","sub20","08","04","rl","test","72","img/p_d_diag.png","5","72","pattern,color,shape","23","1",""
"null","395907","HierDy549h95o9","sub20","08","04","feedback","test","null","","","na","","23","",""
"1261.1000003814697","397169","HierDy549h95o9","sub20","08","04","rl","test","75","img/r_d_diag.png","7","75","pattern,color,shape","24","1",""
"null","398172","HierDy549h95o9","sub20","08","04","feedback","test","null","","","na","","24","",""
"760.1000003814697","398933","HierDy549h95o9","sub20","08","04","rl","test","72","img/p_d_diag.png","5","72","pattern,color,shape","25","1",""
"null","399939","HierDy549h95o9","sub20","08","04","feedback","test","null","","","na","","25","",""
"1535","401475","HierDy549h95o9","sub20","08","04","rl","test","75","img/p_t_diag.png","6","74","pattern,color,shape","26","0",""
"null","402483","HierDy549h95o9","sub20","08","04","feedback","test","null","","","na","","26","",""
"2106.5","404590","HierDy549h95o9","sub20","08","04","rl","test","70","img/r_d_check.png","3","68","pattern,color,shape","27","0",""
"null","405595","HierDy549h95o9","sub20","08","04","feedback","test","null","","","na","","27","",""
"728","406324","HierDy549h95o9","sub20","08","04","rl","test","68","img/p_d_check.png","1","65","pattern,color,shape","28","0",""
"null","407331","HierDy549h95o9","sub20","08","04","feedback","test","null","","","na","","28","",""
"987.5","408319","HierDy549h95o9","sub20","08","04","rl","test","83","img/p_t_check.png","2","83","pattern,color,shape","29","1",""
"null","409323","HierDy549h95o9","sub20","08","04","feedback","test","null","","","na","","29","",""
"779.3000001907349","410103","HierDy549h95o9","sub20","08","04","rl","test","83","img/p_t_check.png","2","83","pattern,color,shape","30","1",""
"null","411107","HierDy549h95o9","sub20","08","04","feedback","test","null","","","na","","30","",""
"1547.5999994277954","412656","HierDy549h95o9","sub20","08","04","rl","test","70","img/r_t_check.png","4","70","pattern,color,shape","31","1",""
"null","413659","HierDy549h95o9","sub20","08","04","feedback","test","null","","","na","","31","",""
"664","414324","HierDy549h95o9","sub20","08","04","rl","test","70","img/r_t_check.png","4","70","pattern,color,shape","32","1",""
"null","415331","HierDy549h95o9","sub20","08","04","feedback","test","null","","","na","","32","",""
"1077.6999998092651","416410","HierDy549h95o9","sub20","08","04","rl","test","76","img/r_t_diag.png","8","76","pattern,color,shape","33","1",""
"null","417418","HierDy549h95o9","sub20","08","04","feedback","test","null","","","na","","33","",""
"1205","418624","HierDy549h95o9","sub20","08","04","rl","test","75","img/r_d_diag.png","7","75","pattern,color,shape","34","1",""
"null","419627","HierDy549h95o9","sub20","08","04","feedback","test","null","","","na","","34","",""
"761.3999996185303","420389","HierDy549h95o9","sub20","08","04","rl","test","65","img/p_d_check.png","1","65","pattern,color,shape","35","1",""
"null","421395","HierDy549h95o9","sub20","08","04","feedback","test","null","","","na","","35","",""
"1394.5999994277954","422790","HierDy549h95o9","sub20","08","04","rl","test","76","img/r_d_diag.png","7","75","pattern,color,shape","36","0",""
"null","423796","HierDy549h95o9","sub20","08","04","feedback","test","null","","","na","","36","",""
"1125.4000005722046","424922","HierDy549h95o9","sub20","08","04","rl","test","75","img/r_t_diag.png","8","76","pattern,color,shape","37","0",""
"null","425931","HierDy549h95o9","sub20","08","04","feedback","test","null","","","na","","37","",""
"896.1000003814697","426828","HierDy549h95o9","sub20","08","04","rl","test","70","img/r_d_check.png","3","68","pattern,color,shape","38","0",""
"null","427835","HierDy549h95o9","sub20","08","04","feedback","test","null","","","na","","38","",""
"1215.0999994277954","429051","HierDy549h95o9","sub20","08","04","rl","test","72","img/p_d_diag.png","5","72","pattern,color,shape","39","1",""
"null","430058","HierDy549h95o9","sub20","08","04","feedback","test","null","","","na","","39","",""
"1541.8000001907349","431600","HierDy549h95o9","sub20","08","04","rl","test","75","img/p_t_diag.png","6","74","pattern,color,shape","40","0",""
"null","432602","HierDy549h95o9","sub20","08","04","feedback","test","null","","","na","","40","",""
"1026.5999994277954","433630","HierDy549h95o9","sub20","08","04","rl","test","75","img/r_d_diag.png","7","75","pattern,color,shape","41","1",""
"null","434635","HierDy549h95o9","sub20","08","04","feedback","test","null","","","na","","41","",""
"855.9000005722046","435492","HierDy549h95o9","sub20","08","04","rl","test","74","img/p_d_diag.png","5","72","pattern,color,shape","42","0",""
"null","436499","HierDy549h95o9","sub20","08","04","feedback","test","null","","","na","","42","",""
"419.29999923706055","436919","HierDy549h95o9","sub20","08","04","rl","test","74","img/r_t_diag.png","8","76","pattern,color,shape","43","0",""
"null","437923","HierDy549h95o9","sub20","08","04","feedback","test","null","","","na","","43","",""
"null","440426","HierDy549h95o9","sub20","08","04","rl","test","null","img/p_t_diag.png","6","74","pattern,color,shape","44","0",""
"null","441434","HierDy549h95o9","sub20","08","04","feedback","test","null","","","na","","44","",""
"null","443938","HierDy549h95o9","sub20","08","04","rl","test","null","img/p_t_check.png","2","83","pattern,color,shape","45","0",""
"null","444946","HierDy549h95o9","sub20","08","04","feedback","test","null","","","na","","45","",""
"781.4000005722046","445728","HierDy549h95o9","sub20","08","04","rl","test","74","img/r_d_check.png","3","68","pattern,color,shape","46","0",""
"null","446730","HierDy549h95o9","sub20","08","04","feedback","test","null","","","na","","46","",""
"748.6999998092651","447480","HierDy549h95o9","sub20","08","04","rl","test","70","img/r_t_check.png","4","70","pattern,color,shape","47","1",""
"null","448482","HierDy549h95o9","sub20","08","04","feedback","test","null","","","na","","47","",""
"758.9000005722046","449242","HierDy549h95o9","sub20","08","04","rl","test","65","img/p_d_check.png","1","65","pattern,color,shape","48","1",""
"null","450250","HierDy549h95o9","sub20","08","04","feedback","test","null","","","na","","48","",""
"863.5999994277954","451114","HierDy549h95o9","sub20","08","04","rl","test","65","img/p_d_check.png","1","65","pattern,color,shape","49","1",""
"null","452123","HierDy549h95o9","sub20","08","04","feedback","test","null","","","na","","49","",""
"901.1000003814697","453025","HierDy549h95o9","sub20","08","04","rl","test","75","img/r_t_diag.png","8","76","pattern,color,shape","50","0",""
"null","454027","HierDy549h95o9","sub20","08","04","feedback","test","null","","","na","","50","",""
"865.1000003814697","454893","HierDy549h95o9","sub20","08","04","rl","test","68","img/r_d_check.png","3","68","pattern,color,shape","51","1",""
"null","455899","HierDy549h95o9","sub20","08","04","feedback","test","null","","","na","","51","",""
"1291.1999998092651","457191","HierDy549h95o9","sub20","08","04","rl","test","72","img/p_d_diag.png","5","72","pattern,color,shape","52","1",""
"null","458194","HierDy549h95o9","sub20","08","04","feedback","test","null","","","na","","52","",""
"1043.6000003814697","459239","HierDy549h95o9","sub20","08","04","rl","test","70","img/r_t_check.png","4","70","pattern,color,shape","53","1",""
"null","460243","HierDy549h95o9","sub20","08","04","feedback","test","null","","","na","","53","",""
"1359.5999994277954","461604","HierDy549h95o9","sub20","08","04","rl","test","83","img/p_t_check.png","2","83","pattern,color,shape","54","1",""
"null","462611","HierDy549h95o9","sub20","08","04","feedback","test","null","","","na","","54","",""
"1980.3000001907349","464592","HierDy549h95o9","sub20","08","04","rl","test","74","img/p_t_diag.png","6","74","pattern,color,shape","55","1",""
"null","465594","HierDy549h95o9","sub20","08","04","feedback","test","null","","","na","","55","",""
"1547.8999996185303","467143","HierDy549h95o9","sub20","08","04","rl","test","75","img/r_d_diag.png","7","75","pattern,color,shape","56","1",""
"null","468147","HierDy549h95o9","sub20","08","04","feedback","test","null","","","na","","56","",""
"726.6999998092651","468875","HierDy549h95o9","sub20","08","04","rl","test","74","img/p_t_diag.png","6","74","pattern,color,shape","57","1",""
"null","469882","HierDy549h95o9","sub20","08","04","feedback","test","null","","","na","","57","",""
"1392.6999998092651","471276","HierDy549h95o9","sub20","08","04","rl","test","83","img/p_t_check.png","2","83","pattern,color,shape","58","1",""
"null","472283","HierDy549h95o9","sub20","08","04","feedback","test","null","","","na","","58","",""
"1286","473570","HierDy549h95o9","sub20","08","04","rl","test","75","img/r_d_diag.png","7","75","pattern,color,shape","59","1",""
"null","474579","HierDy549h95o9","sub20","08","04","feedback","test","null","","","na","","59","",""
"1287.5","475867","HierDy549h95o9","sub20","08","04","rl","test","83","img/r_t_check.png","4","70","pattern,color,shape","60","0",""
"null","476868","HierDy549h95o9","sub20","08","04","feedback","test","null","","","na","","60","",""
"666","477535","HierDy549h95o9","sub20","08","04","rl","test","65","img/p_d_check.png","1","65","pattern,color,shape","61","1",""
"null","478540","HierDy549h95o9","sub20","08","04","feedback","test","null","","","na","","61","",""
"943.6000003814697","479484","HierDy549h95o9","sub20","08","04","rl","test","75","img/r_t_diag.png","8","76","pattern,color,shape","62","0",""
"null","480491","HierDy549h95o9","sub20","08","04","feedback","test","null","","","na","","62","",""
"null","482995","HierDy549h95o9","sub20","08","04","rl","test","null","img/p_d_diag.png","5","72","pattern,color,shape","63","0",""
"null","484004","HierDy549h95o9","sub20","08","04","feedback","test","null","","","na","","63","",""
"1244.5","485249","HierDy549h95o9","sub20","08","04","rl","test","68","img/r_d_check.png","3","68","pattern,color,shape","64","1",""
"null","486251","HierDy549h95o9","sub20","08","04","feedback","test","null","","","na","","64","",""
"539.0999994277954","486791","HierDy549h95o9","sub20","08","04","rl","test","68","img/r_d_check.png","3","68","pattern,color,shape","65","1",""
"null","487794","HierDy549h95o9","sub20","08","04","feedback","test","null","","","na","","65","",""
"1995.6999998092651","489791","HierDy549h95o9","sub20","08","04","rl","test","74","img/p_t_diag.png","6","74","pattern,color,shape","66","1",""
"null","490795","HierDy549h95o9","sub20","08","04","feedback","test","null","","","na","","66","",""
"935.0999994277954","491731","HierDy549h95o9","sub20","08","04","rl","test","75","img/r_d_diag.png","7","75","pattern,color,shape","67","1",""
"null","492739","HierDy549h95o9","sub20","08","04","feedback","test","null","","","na","","67","",""
"1612.5","494353","HierDy549h95o9","sub20","08","04","rl","test","70","img/p_t_check.png","2","83","pattern,color,shape","68","0",""
"null","495355","HierDy549h95o9","sub20","08","04","feedback","test","null","","","na","","68","",""
"2129.800000190735","497485","HierDy549h95o9","sub20","08","04","rl","test","72","img/p_d_diag.png","5","72","pattern,color,shape","69","1",""
"null","498491","HierDy549h95o9","sub20","08","04","feedback","test","null","","","na","","69","",""
"797.1999998092651","499289","HierDy549h95o9","sub20","08","04","rl","test","68","img/r_d_check.png","3","68","pattern,color,shape","70","1",""
"null","500292","HierDy549h95o9","sub20","08","04","feedback","test","null","","","na","","70","",""
"1064.5","501357","HierDy549h95o9","sub20","08","04","rl","test","70","img/r_t_check.png","4","70","pattern,color,shape","71","1",""
"null","502363","HierDy549h95o9","sub20","08","04","feedback","test","null","","","na","","71","",""
"1341.8999996185303","503706","HierDy549h95o9","sub20","08","04","rl","test","74","img/r_t_diag.png","8","76","pattern,color,shape","72","0",""
"null","504714","HierDy549h95o9","sub20","08","04","feedback","test","null","","","na","","72","",""
"1417.5","506133","HierDy549h95o9","sub20","08","04","rl","test","65","img/p_d_check.png","1","65","pattern,color,shape","73","1",""
"null","507139","HierDy549h95o9","sub20","08","04","feedback","test","null","","","na","","73","",""
"null","509642","HierDy549h95o9","sub20","08","04","rl","test","null","img/r_t_diag.png","8","76","pattern,color,shape","74","0",""
"null","510651","HierDy549h95o9","sub20","08","04","feedback","test","null","","","na","","74","",""
"null","513155","HierDy549h95o9","sub20","08","04","rl","test","null","img/p_t_check.png","2","83","pattern,color,shape","75","0",""
"null","514163","HierDy549h95o9","sub20","08","04","feedback","test","null","","","na","","75","",""
"null","516668","HierDy549h95o9","sub20","08","04","rl","test","null","img/p_d_check.png","1","65","pattern,color,shape","76","0",""
"null","517668","HierDy549h95o9","sub20","08","04","feedback","test","null","","","na","","76","",""
"2337.1000003814697","520006","HierDy549h95o9","sub20","08","04","rl","test","70","img/p_d_diag.png","5","72","pattern,color,shape","77","0",""
"null","521010","HierDy549h95o9","sub20","08","04","feedback","test","null","","","na","","77","",""
"1452.3999996185303","522463","HierDy549h95o9","sub20","08","04","rl","test","75","img/p_t_diag.png","6","74","pattern,color,shape","78","0",""
"null","523467","HierDy549h95o9","sub20","08","04","feedback","test","null","","","na","","78","",""
"1476.5","524944","HierDy549h95o9","sub20","08","04","rl","test","70","img/r_t_diag.png","8","76","pattern,color,shape","79","0",""
"null","525947","HierDy549h95o9","sub20","08","04","feedback","test","null","","","na","","79","",""
"null","528451","HierDy549h95o9","sub20","08","04","rl","test","null","img/r_t_check.png","4","70","pattern,color,shape","80","0",""
"null","529460","HierDy549h95o9","sub20","08","04","feedback","test","null","","","na","","80","",""
"null","531963","HierDy549h95o9","sub20","08","04","rl","test","null","img/r_d_diag.png","7","75","pattern,color,shape","81","0",""
"null","532970","HierDy549h95o9","sub20","08","04","feedback","test","null","","","na","","81","",""
"2217.300000190735","535188","HierDy549h95o9","sub20","08","04","rl","test","70","img/p_d_check.png","1","65","pattern,color,shape","82","0",""
"null","536196","HierDy549h95o9","sub20","08","04","feedback","test","null","","","na","","82","",""
"1460.2999992370605","537657","HierDy549h95o9","sub20","08","04","rl","test","70","img/r_d_check.png","3","68","pattern,color,shape","83","0",""
"null","538659","HierDy549h95o9","sub20","08","04","feedback","test","null","","","na","","83","",""
"1190.5","539850","HierDy549h95o9","sub20","08","04","rl","test","70","img/r_t_check.png","4","70","pattern,color,shape","84","1",""
"null","540859","HierDy549h95o9","sub20","08","04","feedback","test","null","","","na","","84","",""
"null","543362","HierDy549h95o9","sub20","08","04","rl","test","null","img/p_d_check.png","1","65","pattern,color,shape","85","0",""
"null","544371","HierDy549h95o9","sub20","08","04","feedback","test","null","","","na","","85","",""
"null","546874","HierDy549h95o9","sub20","08","04","rl","test","null","img/p_t_check.png","2","83","pattern,color,shape","86","0",""
"null","547883","HierDy549h95o9","sub20","08","04","feedback","test","null","","","na","","86","",""
"null","550387","HierDy549h95o9","sub20","08","04","rl","test","null","img/p_t_check.png","2","83","pattern,color,shape","87","0",""
"null","551395","HierDy549h95o9","sub20","08","04","feedback","test","null","","","na","","87","",""
"925.5","552321","HierDy549h95o9","sub20","08","04","rl","test","75","img/r_d_diag.png","7","75","pattern,color,shape","88","1",""
"null","553331","HierDy549h95o9","sub20","08","04","feedback","test","null","","","na","","88","",""
"null","555835","HierDy549h95o9","sub20","08","04","rl","test","null","img/r_d_diag.png","7","75","pattern,color,shape","89","0",""
"null","556844","HierDy549h95o9","sub20","08","04","feedback","test","null","","","na","","89","",""
"2062.9000005722046","558907","HierDy549h95o9","sub20","08","04","rl","test","72","img/p_d_diag.png","5","72","pattern,color,shape","90","1",""
"null","559915","HierDy549h95o9","sub20","08","04","feedback","test","null","","","na","","90","",""
"140.80000019073486","560056","HierDy549h95o9","sub20","08","04","rl","test","65","img/r_d_diag.png","7","75","pattern,color,shape","91","0",""
"null","561058","HierDy549h95o9","sub20","08","04","feedback","test","null","","","na","","91","",""
"null","563563","HierDy549h95o9","sub20","08","04","rl","test","null","img/p_t_diag.png","6","74","pattern,color,shape","92","0",""
"null","564571","HierDy549h95o9","sub20","08","04","feedback","test","null","","","na","","92","",""
"null","567075","HierDy549h95o9","sub20","08","04","rl","test","null","img/r_t_diag.png","8","76","pattern,color,shape","93","0",""
"null","568084","HierDy549h95o9","sub20","08","04","feedback","test","null","","","na","","93","",""
"null","570595","HierDy549h95o9","sub20","08","04","rl","test","null","img/p_d_diag.png","5","72","pattern,color,shape","94","0",""
"null","571602","HierDy549h95o9","sub20","08","04","feedback","test","null","","","na","","94","",""
"1020.5999994277954","572624","HierDy549h95o9","sub20","08","04","rl","test","72","img/p_t_diag.png","6","74","pattern,color,shape","95","0",""
"null","573627","HierDy549h95o9","sub20","08","04","feedback","test","null","","","na","","95","",""
"1890.6999998092651","575519","HierDy549h95o9","sub20","08","04","rl","test","75","img/p_d_diag.png","5","72","pattern,color,shape","96","0",""
"null","576523","HierDy549h95o9","sub20","08","04","feedback","test","null","","","na","","96","",""
"null","579027","HierDy549h95o9","sub20","08","04","rl","test","null","img/r_t_check.png","4","70","pattern,color,shape","97","0",""
"null","580035","HierDy549h95o9","sub20","08","04","feedback","test","null","","","na","","97","",""
"686.5","580722","HierDy549h95o9","sub20","08","04","rl","test","74","img/r_d_check.png","3","68","pattern,color,shape","98","0",""
"null","581731","HierDy549h95o9","sub20","08","04","feedback","test","null","","","na","","98","",""
"1046.3000001907349","582778","HierDy549h95o9","sub20","08","04","rl","test","70","img/r_t_diag.png","8","76","pattern,color,shape","99","0",""
"null","583786","HierDy549h95o9","sub20","08","04","feedback","test","null","","","na","","99","",""
"null","586291","HierDy549h95o9","sub20","08","04","rl","test","null","img/p_d_check.png","1","65","pattern,color,shape","100","0",""
"null","587299","HierDy549h95o9","sub20","08","04","feedback","test","null","","","na","","100","",""
"310.5999994277954","587610","HierDy549h95o9","sub20","08","04","rl","test","74","img/p_t_diag.png","6","74","pattern,color,shape","101","1",""
"null","588619","HierDy549h95o9","sub20","08","04","feedback","test","null","","","na","","101","",""
"null","591122","HierDy549h95o9","sub20","08","04","rl","test","null","img/p_t_check.png","2","83","pattern,color,shape","102","0",""
"null","592131","HierDy549h95o9","sub20","08","04","feedback","test","null","","","na","","102","",""
"null","594635","HierDy549h95o9","sub20","08","04","rl","test","null","img/r_d_check.png","3","68","pattern,color,shape","103","0",""
"null","595644","HierDy549h95o9","sub20","08","04","feedback","test","null","","","na","","103","",""
"1429.3999996185303","597074","HierDy549h95o9","sub20","08","04","rl","test","68","img/r_t_check.png","4","70","pattern,color,shape","104","0",""
"null","598083","HierDy549h95o9","sub20","08","04","feedback","test","null","","","na","","104","",""
"null","600587","HierDy549h95o9","sub20","08","04","rl","test","null","img/p_d_diag.png","5","72","pattern,color,shape","105","0",""
"null","601595","HierDy549h95o9","sub20","08","04","feedback","test","null","","","na","","105","",""
"null","604099","HierDy549h95o9","sub20","08","04","rl","test","null","img/r_d_diag.png","7","75","pattern,color,shape","106","0",""
"null","605106","HierDy549h95o9","sub20","08","04","feedback","test","null","","","na","","106","",""
"null","607611","HierDy549h95o9","sub20","08","04","rl","test","null","img/r_t_diag.png","8","76","pattern,color,shape","107","0",""
"null","608619","HierDy549h95o9","sub20","08","04","feedback","test","null","","","na","","107","",""
"null","611123","HierDy549h95o9","sub20","08","04","rl","test","null","img/r_t_check.png","4","70","pattern,color,shape","108","0",""
"null","612131","HierDy549h95o9","sub20","08","04","feedback","test","null","","","na","","108","",""
"null","614636","HierDy549h95o9","sub20","08","04","rl","test","null","img/p_t_diag.png","6","74","pattern,color,shape","109","0",""
"null","615643","HierDy549h95o9","sub20","08","04","feedback","test","null","","","na","","109","",""
"null","618146","HierDy549h95o9","sub20","08","04","rl","test","null","img/p_d_check.png","1","65","pattern,color,shape","110","0",""
"null","619155","HierDy549h95o9","sub20","08","04","feedback","test","null","","","na","","110","",""
"null","621658","HierDy549h95o9","sub20","08","04","rl","test","null","img/p_t_check.png","2","83","pattern,color,shape","111","0",""
"null","622667","HierDy549h95o9","sub20","08","04","feedback","test","null","","","na","","111","",""
"null","625171","HierDy549h95o9","sub20","08","04","rl","test","null","img/p_d_check.png","1","65","pattern,color,shape","112","0",""
"null","626179","HierDy549h95o9","sub20","08","04","feedback","test","null","","","na","","112","",""
"null","628683","HierDy549h95o9","sub20","08","04","rl","test","null","img/r_d_check.png","3","68","pattern,color,shape","113","0",""
"null","629691","HierDy549h95o9","sub20","08","04","feedback","test","null","","","na","","113","",""
"null","632194","HierDy549h95o9","sub20","08","04","rl","test","null","img/p_t_check.png","2","83","pattern,color,shape","114","0",""
"null","633203","HierDy549h95o9","sub20","08","04","feedback","test","null","","","na","","114","",""
"null","635706","HierDy549h95o9","sub20","08","04","rl","test","null","img/r_t_diag.png","8","76","pattern,color,shape","115","0",""
"null","636715","HierDy549h95o9","sub20","08","04","feedback","test","null","","","na","","115","",""
"null","639219","HierDy549h95o9","sub20","08","04","rl","test","null","img/p_d_diag.png","5","72","pattern,color,shape","116","0",""
"null","640227","HierDy549h95o9","sub20","08","04","feedback","test","null","","","na","","116","",""
"null","642732","HierDy549h95o9","sub20","08","04","rl","test","null","img/r_t_check.png","4","70","pattern,color,shape","117","0",""
"null","643739","HierDy549h95o9","sub20","08","04","feedback","test","null","","","na","","117","",""
"null","646243","HierDy549h95o9","sub20","08","04","rl","test","null","img/r_d_diag.png","7","75","pattern,color,shape","118","0",""
"null","647251","HierDy549h95o9","sub20","08","04","feedback","test","null","","","na","","118","",""
"null","649755","HierDy549h95o9","sub20","08","04","rl","test","null","img/r_d_diag.png","7","75","pattern,color,shape","119","0",""
"null","650764","HierDy549h95o9","sub20","08","04","feedback","test","null","","","na","","119","",""
"null","653267","HierDy549h95o9","sub20","08","04","rl","test","null","img/r_t_diag.png","8","76","pattern,color,shape","120","0",""
"null","654275","HierDy549h95o9","sub20","08","04","feedback","test","null","","","na","","120","",""
"null","656778","HierDy549h95o9","sub20","08","04","rl","test","null","img/p_t_diag.png","6","74","pattern,color,shape","121","0",""
"null","657787","HierDy549h95o9","sub20","08","04","feedback","test","null","","","na","","121","",""
"null","660291","HierDy549h95o9","sub20","08","04","rl","test","null","img/r_d_check.png","3","68","pattern,color,shape","122","0",""
"null","661299","HierDy549h95o9","sub20","08","04","feedback","test","null","","","na","","122","",""
"null","663804","HierDy549h95o9","sub20","08","04","rl","test","null","img/p_d_check.png","1","65","pattern,color,shape","123","0",""
"null","664811","HierDy549h95o9","sub20","08","04","feedback","test","null","","","na","","123","",""
"null","667315","HierDy549h95o9","sub20","08","04","rl","test","null","img/r_d_check.png","3","68","pattern,color,shape","124","0",""
"null","668322","HierDy549h95o9","sub20","08","04","feedback","test","null","","","na","","124","",""
"null","670827","HierDy549h95o9","sub20","08","04","rl","test","null","img/p_t_diag.png","6","74","pattern,color,shape","125","0",""
"null","671834","HierDy549h95o9","sub20","08","04","feedback","test","null","","","na","","125","",""
"null","674338","HierDy549h95o9","sub20","08","04","rl","test","null","img/p_d_diag.png","5","72","pattern,color,shape","126","0",""
"null","675347","HierDy549h95o9","sub20","08","04","feedback","test","null","","","na","","126","",""
"null","677851","HierDy549h95o9","sub20","08","04","rl","test","null","img/p_t_check.png","2","83","pattern,color,shape","127","0",""
"null","678859","HierDy549h95o9","sub20","08","04","feedback","test","null","","","na","","127","",""
"null","681363","HierDy549h95o9","sub20","08","04","rl","test","null","img/p_d_check.png","1","65","pattern,color,shape","128","0",""
"null","682371","HierDy549h95o9","sub20","08","04","feedback","test","null","","","na","","128","",""
"null","684876","HierDy549h95o9","sub20","08","04","rl","test","null","img/r_t_check.png","4","70","pattern,color,shape","129","0",""
"null","685884","HierDy549h95o9","sub20","08","04","feedback","test","null","","","na","","129","",""
"null","688387","HierDy549h95o9","sub20","08","04","rl","test","null","img/r_t_check.png","4","70","pattern,color,shape","130","0",""
"null","689395","HierDy549h95o9","sub20","08","04","feedback","test","null","","","na","","130","",""
"null","691899","HierDy549h95o9","sub20","08","04","rl","test","null","img/r_d_check.png","3","68","pattern,color,shape","131","0",""
"null","692906","HierDy549h95o9","sub20","08","04","feedback","test","null","","","na","","131","",""
"null","695410","HierDy549h95o9","sub20","08","04","rl","test","null","img/p_d_diag.png","5","72","pattern,color,shape","132","0",""
"null","696419","HierDy549h95o9","sub20","08","04","feedback","test","null","","","na","","132","",""
"null","698922","HierDy549h95o9","sub20","08","04","rl","test","null","img/r_d_diag.png","7","75","pattern,color,shape","133","0",""
"null","699931","HierDy549h95o9","sub20","08","04","feedback","test","null","","","na","","133","",""
"null","702435","HierDy549h95o9","sub20","08","04","rl","test","null","img/r_t_diag.png","8","76","pattern,color,shape","134","0",""
"null","703443","HierDy549h95o9","sub20","08","04","feedback","test","null","","","na","","134","",""
"null","705947","HierDy549h95o9","sub20","08","04","rl","test","null","img/p_t_diag.png","6","74","pattern,color,shape","135","0",""
"null","706955","HierDy549h95o9","sub20","08","04","feedback","test","null","","","na","","135","",""
"null","709458","HierDy549h95o9","sub20","08","04","rl","test","null","img/r_d_diag.png","7","75","pattern,color,shape","136","0",""
"null","710467","HierDy549h95o9","sub20","08","04","feedback","test","null","","","na","","136","",""
"null","712972","HierDy549h95o9","sub20","08","04","rl","test","null","img/r_t_check.png","4","70","pattern,color,shape","137","0",""
"null","713979","HierDy549h95o9","sub20","08","04","feedback","test","null","","","na","","137","",""
"null","716483","HierDy549h95o9","sub20","08","04","rl","test","null","img/p_t_check.png","2","83","pattern,color,shape","138","0",""
"null","717491","HierDy549h95o9","sub20","08","04","feedback","test","null","","","na","","138","",""
"null","719995","HierDy549h95o9","sub20","08","04","rl","test","null","img/p_t_check.png","2","83","pattern,color,shape","139","0",""
"null","721003","HierDy549h95o9","sub20","08","04","feedback","test","null","","","na","","139","",""
"null","723507","HierDy549h95o9","sub20","08","04","rl","test","null","img/r_t_diag.png","8","76","pattern,color,shape","140","0",""
"null","724516","HierDy549h95o9","sub20","08","04","feedback","test","null","","","na","","140","",""
"null","727018","HierDy549h95o9","sub20","08","04","rl","test","null","img/p_d_check.png","1","65","pattern,color,shape","141","0",""
"null","728027","HierDy549h95o9","sub20","08","04","feedback","test","null","","","na","","141","",""
"null","730531","HierDy549h95o9","sub20","08","04","rl","test","null","img/p_d_diag.png","5","72","pattern,color,shape","142","0",""
"null","731539","HierDy549h95o9","sub20","08","04","feedback","test","null","","","na","","142","",""
"null","734043","HierDy549h95o9","sub20","08","04","rl","test","null","img/p_t_check.png","2","83","pattern,color,shape","143","0",""
"null","735051","HierDy549h95o9","sub20","08","04","feedback","test","null","","","na","","143","",""
"null","737554","HierDy549h95o9","sub20","08","04","rl","test","null","img/r_d_diag.png","7","75","pattern,color,shape","144","0",""
"null","738563","HierDy549h95o9","sub20","08","04","feedback","test","null","","","na","","144","",""
"null","741066","HierDy549h95o9","sub20","08","04","rl","test","null","img/r_d_check.png","3","68","pattern,color,shape","145","0",""
"null","742075","HierDy549h95o9","sub20","08","04","feedback","test","null","","","na","","145","",""
"null","744579","HierDy549h95o9","sub20","08","04","rl","test","null","img/p_t_diag.png","6","74","pattern,color,shape","146","0",""
"null","745587","HierDy549h95o9","sub20","08","04","feedback","test","null","","","na","","146","",""
"null","748091","HierDy549h95o9","sub20","08","04","rl","test","null","img/r_d_check.png","3","68","pattern,color,shape","147","0",""
"null","749100","HierDy549h95o9","sub20","08","04","feedback","test","null","","","na","","147","",""
"null","751603","HierDy549h95o9","sub20","08","04","rl","test","null","img/r_t_diag.png","8","76","pattern,color,shape","148","0",""
"null","752610","HierDy549h95o9","sub20","08","04","feedback","test","null","","","na","","148","",""
"null","755115","HierDy549h95o9","sub20","08","04","rl","test","null","img/p_t_diag.png","6","74","pattern,color,shape","149","0",""
"null","756123","HierDy549h95o9","sub20","08","04","feedback","test","null","","","na","","149","",""
"null","758626","HierDy549h95o9","sub20","08","04","rl","test","null","img/r_t_check.png","4","70","pattern,color,shape","150","0",""
"null","759636","HierDy549h95o9","sub20","08","04","feedback","test","null","","","na","","150","",""
"null","762138","HierDy549h95o9","sub20","08","04","rl","test","null","img/p_d_diag.png","5","72","pattern,color,shape","151","0",""
"null","763147","HierDy549h95o9","sub20","08","04","feedback","test","null","","","na","","151","",""
"null","765651","HierDy549h95o9","sub20","08","04","rl","test","null","img/r_d_check.png","3","68","pattern,color,shape","152","0",""
"null","766658","HierDy549h95o9","sub20","08","04","feedback","test","null","","","na","","152","",""
"null","769163","HierDy549h95o9","sub20","08","04","rl","test","null","img/r_t_diag.png","8","76","pattern,color,shape","153","0",""
"null","770171","HierDy549h95o9","sub20","08","04","feedback","test","null","","","na","","153","",""
"null","772674","HierDy549h95o9","sub20","08","04","rl","test","null","img/r_t_check.png","4","70","pattern,color,shape","154","0",""
"null","773682","HierDy549h95o9","sub20","08","04","feedback","test","null","","","na","","154","",""
"null","776186","HierDy549h95o9","sub20","08","04","rl","test","null","img/p_d_check.png","1","65","pattern,color,shape","155","0",""
"null","777195","HierDy549h95o9","sub20","08","04","feedback","test","null","","","na","","155","",""
"null","779698","HierDy549h95o9","sub20","08","04","rl","test","null","img/r_d_diag.png","7","75","pattern,color,shape","156","0",""
"null","780706","HierDy549h95o9","sub20","08","04","feedback","test","null","","","na","","156","",""
"null","783211","HierDy549h95o9","sub20","08","04","rl","test","null","img/p_d_diag.png","5","72","pattern,color,shape","157","0",""
"null","784218","HierDy549h95o9","sub20","08","04","feedback","test","null","","","na","","157","",""
"null","786723","HierDy549h95o9","sub20","08","04","rl","test","null","img/p_t_check.png","2","83","pattern,color,shape","158","0",""
"null","787730","HierDy549h95o9","sub20","08","04","feedback","test","null","","","na","","158","",""
"null","790235","HierDy549h95o9","sub20","08","04","rl","test","null","img/r_d_check.png","3","68","pattern,color,shape","159","0",""
"null","791243","HierDy549h95o9","sub20","08","04","feedback","test","null","","","na","","159","",""
"null","793747","HierDy549h95o9","sub20","08","04","rl","test","null","img/p_d_check.png","1","65","pattern,color,shape","160","0",""
"null","794754","HierDy549h95o9","sub20","08","04","feedback","test","null","","","na","","160","",""
"null","797259","HierDy549h95o9","sub20","08","04","rl","test","null","img/p_t_diag.png","6","74","pattern,color,shape","161","0",""
"null","798267","HierDy549h95o9","sub20","08","04","feedback","test","null","","","na","","161","",""
"null","800771","HierDy549h95o9","sub20","08","04","rl","test","null","img/p_t_diag.png","6","74","pattern,color,shape","162","0",""
"null","801779","HierDy549h95o9","sub20","08","04","feedback","test","null","","","na","","162","",""
"null","804283","HierDy549h95o9","sub20","08","04","rl","test","null","img/p_d_check.png","1","65","pattern,color,shape","163","0",""
"null","805292","HierDy549h95o9","sub20","08","04","feedback","test","null","","","na","","163","",""
"null","807795","HierDy549h95o9","sub20","08","04","rl","test","null","img/r_d_diag.png","7","75","pattern,color,shape","164","0",""
"null","808803","HierDy549h95o9","sub20","08","04","feedback","test","null","","","na","","164","",""
"null","811306","HierDy549h95o9","sub20","08","04","rl","test","null","img/p_d_check.png","1","65","pattern,color,shape","165","0",""
"null","812314","HierDy549h95o9","sub20","08","04","feedback","test","null","","","na","","165","",""
"null","814820","HierDy549h95o9","sub20","08","04","rl","test","null","img/p_d_diag.png","5","72","pattern,color,shape","166","0",""
"null","815826","HierDy549h95o9","sub20","08","04","feedback","test","null","","","na","","166","",""
"null","818331","HierDy549h95o9","sub20","08","04","rl","test","null","img/r_t_check.png","4","70","pattern,color,shape","167","0",""
"null","819339","HierDy549h95o9","sub20","08","04","feedback","test","null","","","na","","167","",""
"null","821842","HierDy549h95o9","sub20","08","04","rl","test","null","img/r_t_diag.png","8","76","pattern,color,shape","168","0",""
"null","822851","HierDy549h95o9","sub20","08","04","feedback","test","null","","","na","","168","",""
"null","825355","HierDy549h95o9","sub20","08","04","rl","test","null","img/p_t_check.png","2","83","pattern,color,shape","169","0",""
"null","826363","HierDy549h95o9","sub20","08","04","feedback","test","null","","","na","","169","",""
"null","828866","HierDy549h95o9","sub20","08","04","rl","test","null","img/r_d_diag.png","7","75","pattern,color,shape","170","0",""
"null","829875","HierDy549h95o9","sub20","08","04","feedback","test","null","","","na","","170","",""
"null","832379","HierDy549h95o9","sub20","08","04","rl","test","null","img/r_t_check.png","4","70","pattern,color,shape","171","0",""
"null","833387","HierDy549h95o9","sub20","08","04","feedback","test","null","","","na","","171","",""
"null","835891","HierDy549h95o9","sub20","08","04","rl","test","null","img/p_t_check.png","2","83","pattern,color,shape","172","0",""
"null","836899","HierDy549h95o9","sub20","08","04","feedback","test","null","","","na","","172","",""
"null","839405","HierDy549h95o9","sub20","08","04","rl","test","null","img/p_d_diag.png","5","72","pattern,color,shape","173","0",""
"null","840412","HierDy549h95o9","sub20","08","04","feedback","test","null","","","na","","173","",""
"null","842914","HierDy549h95o9","sub20","08","04","rl","test","null","img/r_d_check.png","3","68","pattern,color,shape","174","0",""
"null","843923","HierDy549h95o9","sub20","08","04","feedback","test","null","","","na","","174","",""
"null","846427","HierDy549h95o9","sub20","08","04","rl","test","null","img/r_d_check.png","3","68","pattern,color,shape","175","0",""
"null","847435","HierDy549h95o9","sub20","08","04","feedback","test","null","","","na","","175","",""
"null","849939","HierDy549h95o9","sub20","08","04","rl","test","null","img/p_t_diag.png","6","74","pattern,color,shape","176","0",""
"null","850947","HierDy549h95o9","sub20","08","04","feedback","test","null","","","na","","176","",""
"null","853451","HierDy549h95o9","sub20","08","04","rl","test","null","img/r_t_diag.png","8","76","pattern,color,shape","177","0",""
"null","854459","HierDy549h95o9","sub20","08","04","feedback","test","null","","","na","","177","",""
"null","856963","HierDy549h95o9","sub20","08","04","rl","test","null","img/p_t_diag.png","6","74","pattern,color,shape","178","0",""
"null","857971","HierDy549h95o9","sub20","08","04","feedback","test","null","","","na","","178","",""
"null","860475","HierDy549h95o9","sub20","08","04","rl","test","null","img/r_t_diag.png","8","76","pattern,color,shape","179","0",""
"null","861484","HierDy549h95o9","sub20","08","04","feedback","test","null","","","na","","179","",""
"null","863987","HierDy549h95o9","sub20","08","04","rl","test","null","img/p_d_check.png","1","65","pattern,color,shape","180","0",""
"null","864995","HierDy549h95o9","sub20","08","04","feedback","test","null","","","na","","180","",""
"null","867499","HierDy549h95o9","sub20","08","04","rl","test","null","img/p_d_diag.png","5","72","pattern,color,shape","181","0",""
"null","868506","HierDy549h95o9","sub20","08","04","feedback","test","null","","","na","","181","",""
"null","871011","HierDy549h95o9","sub20","08","04","rl","test","null","img/p_t_check.png","2","83","pattern,color,shape","182","0",""
"null","872020","HierDy549h95o9","sub20","08","04","feedback","test","null","","","na","","182","",""
"null","874523","HierDy549h95o9","sub20","08","04","rl","test","null","img/r_d_diag.png","7","75","pattern,color,shape","183","0",""
"null","875531","HierDy549h95o9","sub20","08","04","feedback","test","null","","","na","","183","",""
"null","878034","HierDy549h95o9","sub20","08","04","rl","test","null","img/p_t_diag.png","6","74","pattern,color,shape","184","0",""
"null","879043","HierDy549h95o9","sub20","08","04","feedback","test","null","","","na","","184","",""
"null","881547","HierDy549h95o9","sub20","08","04","rl","test","null","img/r_t_check.png","4","70","pattern,color,shape","185","0",""
"null","882555","HierDy549h95o9","sub20","08","04","feedback","test","null","","","na","","185","",""
"null","885059","HierDy549h95o9","sub20","08","04","rl","test","null","img/p_d_diag.png","5","72","pattern,color,shape","186","0",""
"null","886067","HierDy549h95o9","sub20","08","04","feedback","test","null","","","na","","186","",""
"null","888570","HierDy549h95o9","sub20","08","04","rl","test","null","img/r_d_check.png","3","68","pattern,color,shape","187","0",""
"null","889579","HierDy549h95o9","sub20","08","04","feedback","test","null","","","na","","187","",""
"null","892083","HierDy549h95o9","sub20","08","04","rl","test","null","img/r_t_check.png","4","70","pattern,color,shape","188","0",""
"null","893091","HierDy549h95o9","sub20","08","04","feedback","test","null","","","na","","188","",""
"null","895595","HierDy549h95o9","sub20","08","04","rl","test","null","img/r_t_diag.png","8","76","pattern,color,shape","189","0",""
"null","896603","HierDy549h95o9","sub20","08","04","feedback","test","null","","","na","","189","",""
"null","899106","HierDy549h95o9","sub20","08","04","rl","test","null","img/p_d_check.png","1","65","pattern,color,shape","190","0",""
"null","900114","HierDy549h95o9","sub20","08","04","feedback","test","null","","","na","","190","",""
"null","902618","HierDy549h95o9","sub20","08","04","rl","test","null","img/r_d_check.png","3","68","pattern,color,shape","191","0",""
"null","903627","HierDy549h95o9","sub20","08","04","feedback","test","null","","","na","","191","",""
"null","906131","HierDy549h95o9","sub20","08","04","rl","test","null","img/r_d_diag.png","7","75","pattern,color,shape","192","0",""
"null","907139","HierDy549h95o9","sub20","08","04","feedback","test","null","","","na","","192","",""
"null","909643","HierDy549h95o9","sub20","08","04","rl","test","null","img/p_t_check.png","2","83","pattern,color,shape","193","0",""
"null","910650","HierDy549h95o9","sub20","08","04","feedback","test","null","","","na","","193","",""
"null","913155","HierDy549h95o9","sub20","08","04","rl","test","null","img/p_t_check.png","2","83","pattern,color,shape","194","0",""
"null","914164","HierDy549h95o9","sub20","08","04","feedback","test","null","","","na","","194","",""
"null","916667","HierDy549h95o9","sub20","08","04","rl","test","null","img/r_t_check.png","4","70","pattern,color,shape","195","0",""
"null","917668","HierDy549h95o9","sub20","08","04","feedback","test","null","","","na","","195","",""
"null","920171","HierDy549h95o9","sub20","08","04","rl","test","null","img/p_t_diag.png","6","74","pattern,color,shape","196","0",""
"null","921178","HierDy549h95o9","sub20","08","04","feedback","test","null","","","na","","196","",""
"null","923683","HierDy549h95o9","sub20","08","04","rl","test","null","img/r_d_diag.png","7","75","pattern,color,shape","197","0",""
"null","924691","HierDy549h95o9","sub20","08","04","feedback","test","null","","","na","","197","",""
"null","927195","HierDy549h95o9","sub20","08","04","rl","test","null","img/p_d_check.png","1","65","pattern,color,shape","198","0",""
"null","928204","HierDy549h95o9","sub20","08","04","feedback","test","null","","","na","","198","",""
"null","930707","HierDy549h95o9","sub20","08","04","rl","test","null","img/p_d_diag.png","5","72","pattern,color,shape","199","0",""
"null","931714","HierDy549h95o9","sub20","08","04","feedback","test","null","","","na","","199","",""
"null","934219","HierDy549h95o9","sub20","08","04","rl","test","null","img/r_t_diag.png","8","76","pattern,color,shape","200","0",""
"null","935227","HierDy549h95o9","sub20","08","04","feedback","test","null","","","na","","200","",""
"null","937731","HierDy549h95o9","sub20","08","04","rl","test","null","img/r_t_diag.png","8","76","pattern,color,shape","201","0",""
"null","938738","HierDy549h95o9","sub20","08","04","feedback","test","null","","","na","","201","",""
"null","941243","HierDy549h95o9","sub20","08","04","rl","test","null","img/p_d_check.png","1","65","pattern,color,shape","202","0",""
"null","942250","HierDy549h95o9","sub20","08","04","feedback","test","null","","","na","","202","",""
"null","944755","HierDy549h95o9","sub20","08","04","rl","test","null","img/r_d_diag.png","7","75","pattern,color,shape","203","0",""
"null","945764","HierDy549h95o9","sub20","08","04","feedback","test","null","","","na","","203","",""
"null","948267","HierDy549h95o9","sub20","08","04","rl","test","null","img/r_d_check.png","3","68","pattern,color,shape","204","0",""
"null","949275","HierDy549h95o9","sub20","08","04","feedback","test","null","","","na","","204","",""
"null","951778","HierDy549h95o9","sub20","08","04","rl","test","null","img/p_d_diag.png","5","72","pattern,color,shape","205","0",""
"null","952787","HierDy549h95o9","sub20","08","04","feedback","test","null","","","na","","205","",""
"null","955291","HierDy549h95o9","sub20","08","04","rl","test","null","img/r_d_diag.png","7","75","pattern,color,shape","206","0",""
"null","956299","HierDy549h95o9","sub20","08","04","feedback","test","null","","","na","","206","",""
"null","958803","HierDy549h95o9","sub20","08","04","rl","test","null","img/p_d_diag.png","5","72","pattern,color,shape","207","0",""
"null","959811","HierDy549h95o9","sub20","08","04","feedback","test","null","","","na","","207","",""
"null","962315","HierDy549h95o9","sub20","08","04","rl","test","null","img/p_t_check.png","2","83","pattern,color,shape","208","0",""
"null","963323","HierDy549h95o9","sub20","08","04","feedback","test","null","","","na","","208","",""
"null","965827","HierDy549h95o9","sub20","08","04","rl","test","null","img/r_t_diag.png","8","76","pattern,color,shape","209","0",""
"null","966835","HierDy549h95o9","sub20","08","04","feedback","test","null","","","na","","209","",""
"null","969339","HierDy549h95o9","sub20","08","04","rl","test","null","img/r_t_check.png","4","70","pattern,color,shape","210","0",""
"null","970348","HierDy549h95o9","sub20","08","04","feedback","test","null","","","na","","210","",""
"null","972850","HierDy549h95o9","sub20","08","04","rl","test","null","img/p_t_diag.png","6","74","pattern,color,shape","211","0",""
"null","973859","HierDy549h95o9","sub20","08","04","feedback","test","null","","","na","","211","",""
"null","976363","HierDy549h95o9","sub20","08","04","rl","test","null","img/p_t_diag.png","6","74","pattern,color,shape","212","0",""
"null","977370","HierDy549h95o9","sub20","08","04","feedback","test","null","","","na","","212","",""
"null","979875","HierDy549h95o9","sub20","08","04","rl","test","null","img/r_t_check.png","4","70","pattern,color,shape","213","0",""
"null","980883","HierDy549h95o9","sub20","08","04","feedback","test","null","","","na","","213","",""
"null","983387","HierDy549h95o9","sub20","08","04","rl","test","null","img/r_d_check.png","3","68","pattern,color,shape","214","0",""
"null","984395","HierDy549h95o9","sub20","08","04","feedback","test","null","","","na","","214","",""
"null","986899","HierDy549h95o9","sub20","08","04","rl","test","null","img/p_t_check.png","2","83","pattern,color,shape","215","0",""
"null","987907","HierDy549h95o9","sub20","08","04","feedback","test","null","","","na","","215","",""
"null","990411","HierDy549h95o9","sub20","08","04","rl","test","null","img/p_d_check.png","1","65","pattern,color,shape","216","0",""
"null","991418","HierDy549h95o9","sub20","08","04","feedback","test","null","","","na","","216","",""
"null","993922","HierDy549h95o9","sub20","08","04","rl","test","null","img/p_t_diag.png","6","74","pattern,color,shape","217","0",""
"null","994930","HierDy549h95o9","sub20","08","04","feedback","test","null","","","na","","217","",""
"null","997436","HierDy549h95o9","sub20","08","04","rl","test","null","img/r_t_diag.png","8","76","pattern,color,shape","218","0",""
"null","998443","HierDy549h95o9","sub20","08","04","feedback","test","null","","","na","","218","",""
"null","1000948","HierDy549h95o9","sub20","08","04","rl","test","null","img/p_d_diag.png","5","72","pattern,color,shape","219","0",""
"null","1001955","HierDy549h95o9","sub20","08","04","feedback","test","null","","","na","","219","",""
"null","1004459","HierDy549h95o9","sub20","08","04","rl","test","null","img/r_t_check.png","4","70","pattern,color,shape","220","0",""
"null","1005468","HierDy549h95o9","sub20","08","04","feedback","test","null","","","na","","220","",""
"null","1007970","HierDy549h95o9","sub20","08","04","rl","test","null","img/r_d_diag.png","7","75","pattern,color,shape","221","0",""
"null","1008978","HierDy549h95o9","sub20","08","04","feedback","test","null","","","na","","221","",""
"null","1011483","HierDy549h95o9","sub20","08","04","rl","test","null","img/r_t_diag.png","8","76","pattern,color,shape","222","0",""
"null","1012491","HierDy549h95o9","sub20","08","04","feedback","test","null","","","na","","222","",""
"null","1014995","HierDy549h95o9","sub20","08","04","rl","test","null","img/r_d_diag.png","7","75","pattern,color,shape","223","0",""
"null","1016003","HierDy549h95o9","sub20","08","04","feedback","test","null","","","na","","223","",""
"null","1018506","HierDy549h95o9","sub20","08","04","rl","test","null","img/p_t_check.png","2","83","pattern,color,shape","224","0",""
"null","1019514","HierDy549h95o9","sub20","08","04","feedback","test","null","","","na","","224","",""
"null","1022019","HierDy549h95o9","sub20","08","04","rl","test","null","img/r_d_check.png","3","68","pattern,color,shape","225","0",""
"null","1023027","HierDy549h95o9","sub20","08","04","feedback","test","null","","","na","","225","",""
"null","1025530","HierDy549h95o9","sub20","08","04","rl","test","null","img/p_d_check.png","1","65","pattern,color,shape","226","0",""
"null","1026538","HierDy549h95o9","sub20","08","04","feedback","test","null","","","na","","226","",""
"null","1029043","HierDy549h95o9","sub20","08","04","rl","test","null","img/r_d_check.png","3","68","pattern,color,shape","227","0",""
"null","1030051","HierDy549h95o9","sub20","08","04","feedback","test","null","","","na","","227","",""
"null","1032555","HierDy549h95o9","sub20","08","04","rl","test","null","img/r_t_check.png","4","70","pattern,color,shape","228","0",""
"null","1033563","HierDy549h95o9","sub20","08","04","feedback","test","null","","","na","","228","",""
"null","1036068","HierDy549h95o9","sub20","08","04","rl","test","null","img/p_t_check.png","2","83","pattern,color,shape","229","0",""
"null","1037075","HierDy549h95o9","sub20","08","04","feedback","test","null","","","na","","229","",""
"null","1039579","HierDy549h95o9","sub20","08","04","rl","test","null","img/p_t_diag.png","6","74","pattern,color,shape","230","0",""
"null","1040587","HierDy549h95o9","sub20","08","04","feedback","test","null","","","na","","230","",""
"null","1043091","HierDy549h95o9","sub20","08","04","rl","test","null","img/p_d_check.png","1","65","pattern,color,shape","231","0",""
"null","1044099","HierDy549h95o9","sub20","08","04","feedback","test","null","","","na","","231","",""
"null","1046602","HierDy549h95o9","sub20","08","04","rl","test","null","img/p_d_check.png","1","65","pattern,color,shape","232","0",""
"null","1047611","HierDy549h95o9","sub20","08","04","feedback","test","null","","","na","","232","",""
"null","1050115","HierDy549h95o9","sub20","08","04","rl","test","null","img/p_d_diag.png","5","72","pattern,color,shape","233","0",""
"null","1051124","HierDy549h95o9","sub20","08","04","feedback","test","null","","","na","","233","",""
"null","1053627","HierDy549h95o9","sub20","08","04","rl","test","null","img/p_t_diag.png","6","74","pattern,color,shape","234","0",""
"null","1054635","HierDy549h95o9","sub20","08","04","feedback","test","null","","","na","","234","",""
"null","1057139","HierDy549h95o9","sub20","08","04","rl","test","null","img/r_t_check.png","4","70","pattern,color,shape","235","0",""
"null","1058147","HierDy549h95o9","sub20","08","04","feedback","test","null","","","na","","235","",""
"null","1060652","HierDy549h95o9","sub20","08","04","rl","test","null","img/p_d_diag.png","5","72","pattern,color,shape","236","0",""
"null","1061659","HierDy549h95o9","sub20","08","04","feedback","test","null","","","na","","236","",""
"null","1064163","HierDy549h95o9","sub20","08","04","rl","test","null","img/r_t_diag.png","8","76","pattern,color,shape","237","0",""
"null","1065171","HierDy549h95o9","sub20","08","04","feedback","test","null","","","na","","237","",""
"null","1067674","HierDy549h95o9","sub20","08","04","rl","test","null","img/r_d_diag.png","7","75","pattern,color,shape","238","0",""
"null","1068683","HierDy549h95o9","sub20","08","04","feedback","test","null","","","na","","238","",""
"null","1071187","HierDy549h95o9","sub20","08","04","rl","test","null","img/r_d_check.png","3","68","pattern,color,shape","239","0",""
"null","1072194","HierDy549h95o9","sub20","08","04","feedback","test","null","","","na","","239","",""
"null","1074699","HierDy549h95o9","sub20","08","04","rl","test","null","img/p_t_check.png","2","83","pattern,color,shape","240","0",""
"null","1075706","HierDy549h95o9","sub20","08","04","feedback","test","null","","","na","","240","",""
"null","1078211","HierDy549h95o9","sub20","08","04","rl","test","null","img/r_t_check.png","4","70","pattern,color,shape","241","0",""
"null","1079219","HierDy549h95o9","sub20","08","04","feedback","test","null","","","na","","241","",""
"null","1081723","HierDy549h95o9","sub20","08","04","rl","test","null","img/p_d_diag.png","5","72","pattern,color,shape","242","0",""
"null","1082731","HierDy549h95o9","sub20","08","04","feedback","test","null","","","na","","242","",""
"null","1085235","HierDy549h95o9","sub20","08","04","rl","test","null","img/p_t_check.png","2","83","pattern,color,shape","243","0",""
"null","1086242","HierDy549h95o9","sub20","08","04","feedback","test","null","","","na","","243","",""
"null","1088747","HierDy549h95o9","sub20","08","04","rl","test","null","img/p_d_check.png","1","65","pattern,color,shape","244","0",""
"null","1089755","HierDy549h95o9","sub20","08","04","feedback","test","null","","","na","","244","",""
"null","1092259","HierDy549h95o9","sub20","08","04","rl","test","null","img/r_t_diag.png","8","76","pattern,color,shape","245","0",""
"null","1093267","HierDy549h95o9","sub20","08","04","feedback","test","null","","","na","","245","",""
"null","1095771","HierDy549h95o9","sub20","08","04","rl","test","null","img/r_d_check.png","3","68","pattern,color,shape","246","0",""
"null","1096780","HierDy549h95o9","sub20","08","04","feedback","test","null","","","na","","246","",""
"null","1099282","HierDy549h95o9","sub20","08","04","rl","test","null","img/p_t_diag.png","6","74","pattern,color,shape","247","0",""
"null","1100291","HierDy549h95o9","sub20","08","04","feedback","test","null","","","na","","247","",""
"null","1102796","HierDy549h95o9","sub20","08","04","rl","test","null","img/r_d_diag.png","7","75","pattern,color,shape","248","0",""
"null","1103803","HierDy549h95o9","sub20","08","04","feedback","test","null","","","na","","248","",""
"83871.0999994278","1187677","HierDy549h95o9","sub20","08","04","","","","","","","","","","{""Q0"":""5""}"
"6252.199999809265","1193932","HierDy549h95o9","sub20","08","04","","","","","","","","","","{""Q0"":""NA""}"
"1223.7000007629395","1195156","HierDy549h95o9","sub20","08","04","","","","","","","","","",""
