"rt","time_elapsed","subject","subID","group","day","trialType","phase","key_press","stim","stimNum","corrresp","hierarchy","trialNum","corr","responses"
"15716.09999999404","15719","HierDyfaxqo3pr","sub27","03","02","","","","","","","","","",""
"","18731","HierDyfaxqo3pr","sub27","03","02","fullscreen","","","","","","","","",""
"19203.20000000298","37935","HierDyfaxqo3pr","sub27","03","02","","prac","","","","","","","",""
"13634.5","51574","HierDyfaxqo3pr","sub27","03","02","","","65","","","","","","",""
"2918.7999999970198","54494","HierDyfaxqo3pr","sub27","03","02","","prac","","","","","","","",""
"1124.7000000029802","55622","HierDyfaxqo3pr","sub27","03","02","rl","test","83","img/r_c_diag.png","2","83","color,pattern,shape","1","1",""
"null","56635","HierDyfaxqo3pr","sub27","03","02","feedback","test","null","","","na","","1","",""
"1211.5","57849","HierDyfaxqo3pr","sub27","03","02","rl","test","74","img/p_t_dots.png","7","75","color,pattern,shape","2","0",""
"null","58854","HierDyfaxqo3pr","sub27","03","02","feedback","test","null","","","na","","2","",""
"1240.1000000089407","60095","HierDyfaxqo3pr","sub27","03","02","rl","test","72","img/p_t_diag.png","5","72","color,pattern,shape","3","1",""
"null","61107","HierDyfaxqo3pr","sub27","03","02","feedback","test","null","","","na","","3","",""
"674.2000000029802","61783","HierDyfaxqo3pr","sub27","03","02","rl","test","65","img/r_t_diag.png","1","65","color,pattern,shape","4","1",""
"null","62794","HierDyfaxqo3pr","sub27","03","02","feedback","test","null","","","na","","4","",""
"971.3999999910593","63767","HierDyfaxqo3pr","sub27","03","02","rl","test","70","img/r_c_dots.png","4","70","color,pattern,shape","5","1",""
"null","64778","HierDyfaxqo3pr","sub27","03","02","feedback","test","null","","","na","","5","",""
"957.7000000029802","65737","HierDyfaxqo3pr","sub27","03","02","rl","test","74","img/p_c_diag.png","6","74","color,pattern,shape","6","1",""
"null","66746","HierDyfaxqo3pr","sub27","03","02","feedback","test","null","","","na","","6","",""
"762.2000000029802","67510","HierDyfaxqo3pr","sub27","03","02","rl","test","68","img/r_t_dots.png","3","68","color,pattern,shape","7","1",""
"null","68522","HierDyfaxqo3pr","sub27","03","02","feedback","test","null","","","na","","7","",""
"852","69376","HierDyfaxqo3pr","sub27","03","02","rl","test","74","img/p_c_diag.png","6","74","color,pattern,shape","8","1",""
"null","70386","HierDyfaxqo3pr","sub27","03","02","feedback","test","null","","","na","","8","",""
"574.7999999970198","70962","HierDyfaxqo3pr","sub27","03","02","rl","test","65","img/r_t_diag.png","1","65","color,pattern,shape","9","1",""
"null","71968","HierDyfaxqo3pr","sub27","03","02","feedback","test","null","","","na","","9","",""
"699.1000000089407","72669","HierDyfaxqo3pr","sub27","03","02","rl","test","76","img/p_c_dots.png","8","76","color,pattern,shape","10","1",""
"null","73678","HierDyfaxqo3pr","sub27","03","02","feedback","test","null","","","na","","10","",""
"577.4000000059605","74257","HierDyfaxqo3pr","sub27","03","02","rl","test","76","img/p_c_dots.png","8","76","color,pattern,shape","11","1",""
"null","75266","HierDyfaxqo3pr","sub27","03","02","feedback","test","null","","","na","","11","",""
"816.2000000029802","76085","HierDyfaxqo3pr","sub27","03","02","rl","test","68","img/r_t_dots.png","3","68","color,pattern,shape","12","1",""
"null","77098","HierDyfaxqo3pr","sub27","03","02","feedback","test","null","","","na","","12","",""
"836.4000000059605","77937","HierDyfaxqo3pr","sub27","03","02","rl","test","72","img/p_t_diag.png","5","72","color,pattern,shape","13","1",""
"null","78942","HierDyfaxqo3pr","sub27","03","02","feedback","test","null","","","na","","13","",""
"604.2000000029802","79549","HierDyfaxqo3pr","sub27","03","02","rl","test","83","img/r_c_diag.png","2","83","color,pattern,shape","14","1",""
"null","80562","HierDyfaxqo3pr","sub27","03","02","feedback","test","null","","","na","","14","",""
"632.7000000029802","81197","HierDyfaxqo3pr","sub27","03","02","rl","test","72","img/p_t_diag.png","5","72","color,pattern,shape","15","1",""
"null","82206","HierDyfaxqo3pr","sub27","03","02","feedback","test","null","","","na","","15","",""
"777.7000000029802","82986","HierDyfaxqo3pr","sub27","03","02","rl","test","75","img/p_t_dots.png","7","75","color,pattern,shape","16","1",""
"null","83994","HierDyfaxqo3pr","sub27","03","02","feedback","test","null","","","na","","16","",""
"852","84848","HierDyfaxqo3pr","sub27","03","02","rl","test","70","img/r_c_dots.png","4","70","color,pattern,shape","17","1",""
"null","85858","HierDyfaxqo3pr","sub27","03","02","feedback","test","null","","","na","","17","",""
"599.5999999940395","86460","HierDyfaxqo3pr","sub27","03","02","rl","test","83","img/r_c_diag.png","2","83","color,pattern,shape","18","1",""
"null","87470","HierDyfaxqo3pr","sub27","03","02","feedback","test","null","","","na","","18","",""
"821.5999999940395","88294","HierDyfaxqo3pr","sub27","03","02","rl","test","75","img/r_t_dots.png","3","68","color,pattern,shape","19","0",""
"null","89306","HierDyfaxqo3pr","sub27","03","02","feedback","test","null","","","na","","19","",""
"2337","91645","HierDyfaxqo3pr","sub27","03","02","rl","test","76","img/p_c_dots.png","8","76","color,pattern,shape","20","1",""
"null","92658","HierDyfaxqo3pr","sub27","03","02","feedback","test","null","","","na","","20","",""
"1493.9000000059605","94154","HierDyfaxqo3pr","sub27","03","02","rl","test","74","img/p_c_diag.png","6","74","color,pattern,shape","21","1",""
"null","95158","HierDyfaxqo3pr","sub27","03","02","feedback","test","null","","","na","","21","",""
"844.7000000029802","96005","HierDyfaxqo3pr","sub27","03","02","rl","test","75","img/p_t_dots.png","7","75","color,pattern,shape","22","1",""
"null","97018","HierDyfaxqo3pr","sub27","03","02","feedback","test","null","","","na","","22","",""
"980.4000000059605","98001","HierDyfaxqo3pr","sub27","03","02","rl","test","65","img/r_t_diag.png","1","65","color,pattern,shape","23","1",""
"null","99010","HierDyfaxqo3pr","sub27","03","02","feedback","test","null","","","na","","23","",""
"1193.2999999970198","100206","HierDyfaxqo3pr","sub27","03","02","rl","test","76","img/p_c_dots.png","8","76","color,pattern,shape","24","1",""
"null","101218","HierDyfaxqo3pr","sub27","03","02","feedback","test","null","","","na","","24","",""
"780.0999999940395","102000","HierDyfaxqo3pr","sub27","03","02","rl","test","70","img/r_c_dots.png","4","70","color,pattern,shape","25","1",""
"null","103006","HierDyfaxqo3pr","sub27","03","02","feedback","test","null","","","na","","25","",""
"983.5","103992","HierDyfaxqo3pr","sub27","03","02","rl","test","65","img/r_t_diag.png","1","65","color,pattern,shape","26","1",""
"null","105002","HierDyfaxqo3pr","sub27","03","02","feedback","test","null","","","na","","26","",""
"535.7000000029802","105540","HierDyfaxqo3pr","sub27","03","02","rl","test","72","img/p_t_diag.png","5","72","color,pattern,shape","27","1",""
"null","106550","HierDyfaxqo3pr","sub27","03","02","feedback","test","null","","","na","","27","",""
"669.0999999940395","107220","HierDyfaxqo3pr","sub27","03","02","rl","test","83","img/r_c_diag.png","2","83","color,pattern,shape","28","1",""
"null","108234","HierDyfaxqo3pr","sub27","03","02","feedback","test","null","","","na","","28","",""
"1000.1000000089407","109236","HierDyfaxqo3pr","sub27","03","02","rl","test","70","img/r_c_diag.png","2","83","color,pattern,shape","29","0",""
"null","110242","HierDyfaxqo3pr","sub27","03","02","feedback","test","null","","","na","","29","",""
"730.5","110974","HierDyfaxqo3pr","sub27","03","02","rl","test","68","img/r_t_dots.png","3","68","color,pattern,shape","30","1",""
"null","111986","HierDyfaxqo3pr","sub27","03","02","feedback","test","null","","","na","","30","",""
"828.8999999910593","112816","HierDyfaxqo3pr","sub27","03","02","rl","test","70","img/r_c_dots.png","4","70","color,pattern,shape","31","1",""
"null","113826","HierDyfaxqo3pr","sub27","03","02","feedback","test","null","","","na","","31","",""
"1285.5","115113","HierDyfaxqo3pr","sub27","03","02","rl","test","74","img/p_c_diag.png","6","74","color,pattern,shape","32","1",""
"null","116118","HierDyfaxqo3pr","sub27","03","02","feedback","test","null","","","na","","32","",""
"838.9000000059605","116958","HierDyfaxqo3pr","sub27","03","02","rl","test","70","img/r_c_dots.png","4","70","color,pattern,shape","33","1",""
"null","117970","HierDyfaxqo3pr","sub27","03","02","feedback","test","null","","","na","","33","",""
"503.5","118475","HierDyfaxqo3pr","sub27","03","02","rl","test","72","img/p_t_diag.png","5","72","color,pattern,shape","34","1",""
"null","119482","HierDyfaxqo3pr","sub27","03","02","feedback","test","null","","","na","","34","",""
"722.7000000029802","120206","HierDyfaxqo3pr","sub27","03","02","rl","test","75","img/p_t_dots.png","7","75","color,pattern,shape","35","1",""
"null","121214","HierDyfaxqo3pr","sub27","03","02","feedback","test","null","","","na","","35","",""
"700.0999999940395","121915","HierDyfaxqo3pr","sub27","03","02","rl","test","75","img/p_t_dots.png","7","75","color,pattern,shape","36","1",""
"null","122925","HierDyfaxqo3pr","sub27","03","02","feedback","test","null","","","na","","36","",""
"654.9000000059605","123582","HierDyfaxqo3pr","sub27","03","02","rl","test","74","img/p_c_diag.png","6","74","color,pattern,shape","37","1",""
"null","124594","HierDyfaxqo3pr","sub27","03","02","feedback","test","null","","","na","","37","",""
"661.2000000029802","125257","HierDyfaxqo3pr","sub27","03","02","rl","test","76","img/p_c_dots.png","8","76","color,pattern,shape","38","1",""
"null","126262","HierDyfaxqo3pr","sub27","03","02","feedback","test","null","","","na","","38","",""
"787.7000000029802","127052","HierDyfaxqo3pr","sub27","03","02","rl","test","68","img/r_t_dots.png","3","68","color,pattern,shape","39","1",""
"null","128066","HierDyfaxqo3pr","sub27","03","02","feedback","test","null","","","na","","39","",""
"675.0999999940395","128743","HierDyfaxqo3pr","sub27","03","02","rl","test","65","img/r_t_diag.png","1","65","color,pattern,shape","40","1",""
"null","129754","HierDyfaxqo3pr","sub27","03","02","feedback","test","null","","","na","","40","",""
"984.0999999940395","130740","HierDyfaxqo3pr","sub27","03","02","rl","test","76","img/p_c_dots.png","8","76","color,pattern,shape","41","1",""
"null","131754","HierDyfaxqo3pr","sub27","03","02","feedback","test","null","","","na","","41","",""
"985.2000000029802","132742","HierDyfaxqo3pr","sub27","03","02","rl","test","72","img/p_t_diag.png","5","72","color,pattern,shape","42","1",""
"null","133750","HierDyfaxqo3pr","sub27","03","02","feedback","test","null","","","na","","42","",""
"766.1000000089407","134518","HierDyfaxqo3pr","sub27","03","02","rl","test","68","img/r_t_dots.png","3","68","color,pattern,shape","43","1",""
"null","135530","HierDyfaxqo3pr","sub27","03","02","feedback","test","null","","","na","","43","",""
"940.9000000059605","136473","HierDyfaxqo3pr","sub27","03","02","rl","test","83","img/r_c_diag.png","2","83","color,pattern,shape","44","1",""
"null","137480","HierDyfaxqo3pr","sub27","03","02","feedback","test","null","","","na","","44","",""
"726.5","138209","HierDyfaxqo3pr","sub27","03","02","rl","test","75","img/p_t_dots.png","7","75","color,pattern,shape","45","1",""
"null","139218","HierDyfaxqo3pr","sub27","03","02","feedback","test","null","","","na","","45","",""
"833.3000000119209","140053","HierDyfaxqo3pr","sub27","03","02","rl","test","65","img/r_t_diag.png","1","65","color,pattern,shape","46","1",""
"null","141066","HierDyfaxqo3pr","sub27","03","02","feedback","test","null","","","na","","46","",""
"896.5","141965","HierDyfaxqo3pr","sub27","03","02","rl","test","74","img/p_c_diag.png","6","74","color,pattern,shape","47","1",""
"null","142978","HierDyfaxqo3pr","sub27","03","02","feedback","test","null","","","na","","47","",""
"1273.0999999940395","144253","HierDyfaxqo3pr","sub27","03","02","rl","test","70","img/r_c_dots.png","4","70","color,pattern,shape","48","1",""
"null","145266","HierDyfaxqo3pr","sub27","03","02","feedback","test","null","","","na","","48","",""
"836","146104","HierDyfaxqo3pr","sub27","03","02","rl","test","74","img/p_c_diag.png","6","74","color,pattern,shape","49","1",""
"null","147110","HierDyfaxqo3pr","sub27","03","02","feedback","test","null","","","na","","49","",""
"582.3000000119209","147694","HierDyfaxqo3pr","sub27","03","02","rl","test","65","img/r_t_diag.png","1","65","color,pattern,shape","50","1",""
"null","148706","HierDyfaxqo3pr","sub27","03","02","feedback","test","null","","","na","","50","",""
"664.2999999970198","149373","HierDyfaxqo3pr","sub27","03","02","rl","test","68","img/r_t_dots.png","3","68","color,pattern,shape","51","1",""
"null","150382","HierDyfaxqo3pr","sub27","03","02","feedback","test","null","","","na","","51","",""
"807.6000000089407","151192","HierDyfaxqo3pr","sub27","03","02","rl","test","75","img/p_t_dots.png","7","75","color,pattern,shape","52","1",""
"null","152202","HierDyfaxqo3pr","sub27","03","02","feedback","test","null","","","na","","52","",""
"711.1000000089407","152915","HierDyfaxqo3pr","sub27","03","02","rl","test","76","img/p_c_dots.png","8","76","color,pattern,shape","53","1",""
"null","153918","HierDyfaxqo3pr","sub27","03","02","feedback","test","null","","","na","","53","",""
"815.4000000059605","154735","HierDyfaxqo3pr","sub27","03","02","rl","test","70","img/r_c_dots.png","4","70","color,pattern,shape","54","1",""
"null","155742","HierDyfaxqo3pr","sub27","03","02","feedback","test","null","","","na","","54","",""
"616","156360","HierDyfaxqo3pr","sub27","03","02","rl","test","83","img/r_c_diag.png","2","83","color,pattern,shape","55","1",""
"null","157362","HierDyfaxqo3pr","sub27","03","02","feedback","test","null","","","na","","55","",""
"672","158036","HierDyfaxqo3pr","sub27","03","02","rl","test","76","img/p_c_dots.png","8","76","color,pattern,shape","56","1",""
"null","159050","HierDyfaxqo3pr","sub27","03","02","feedback","test","null","","","na","","56","",""
"516.7999999970198","159569","HierDyfaxqo3pr","sub27","03","02","rl","test","72","img/p_t_diag.png","5","72","color,pattern,shape","57","1",""
"null","160574","HierDyfaxqo3pr","sub27","03","02","feedback","test","null","","","na","","57","",""
"467.90000000596046","161044","HierDyfaxqo3pr","sub27","03","02","rl","test","72","img/p_t_diag.png","5","72","color,pattern,shape","58","1",""
"null","162058","HierDyfaxqo3pr","sub27","03","02","feedback","test","null","","","na","","58","",""
"766","162826","HierDyfaxqo3pr","sub27","03","02","rl","test","70","img/r_c_dots.png","4","70","color,pattern,shape","59","1",""
"null","163834","HierDyfaxqo3pr","sub27","03","02","feedback","test","null","","","na","","59","",""
"852.4000000059605","164688","HierDyfaxqo3pr","sub27","03","02","rl","test","75","img/p_t_dots.png","7","75","color,pattern,shape","60","1",""
"null","165698","HierDyfaxqo3pr","sub27","03","02","feedback","test","null","","","na","","60","",""
"757.4000000059605","166457","HierDyfaxqo3pr","sub27","03","02","rl","test","74","img/p_c_diag.png","6","74","color,pattern,shape","61","1",""
"null","167466","HierDyfaxqo3pr","sub27","03","02","feedback","test","null","","","na","","61","",""
"735.5","168203","HierDyfaxqo3pr","sub27","03","02","rl","test","83","img/r_c_diag.png","2","83","color,pattern,shape","62","1",""
"null","169218","HierDyfaxqo3pr","sub27","03","02","feedback","test","null","","","na","","62","",""
"469.59999999403954","169689","HierDyfaxqo3pr","sub27","03","02","rl","test","65","img/r_t_diag.png","1","65","color,pattern,shape","63","1",""
"null","170698","HierDyfaxqo3pr","sub27","03","02","feedback","test","null","","","na","","63","",""
"585.4000000059605","171285","HierDyfaxqo3pr","sub27","03","02","rl","test","68","img/r_t_dots.png","3","68","color,pattern,shape","64","1",""
"null","172298","HierDyfaxqo3pr","sub27","03","02","feedback","test","null","","","na","","64","",""
"563","172863","HierDyfaxqo3pr","sub27","03","02","rl","test","68","img/r_t_dots.png","3","68","color,pattern,shape","65","1",""
"null","173874","HierDyfaxqo3pr","sub27","03","02","feedback","test","null","","","na","","65","",""
"538.7000000029802","174415","HierDyfaxqo3pr","sub27","03","02","rl","test","76","img/p_c_dots.png","8","76","color,pattern,shape","66","1",""
"null","175426","HierDyfaxqo3pr","sub27","03","02","feedback","test","null","","","na","","66","",""
"568.7000000029802","175997","HierDyfaxqo3pr","sub27","03","02","rl","test","65","img/r_t_diag.png","1","65","color,pattern,shape","67","1",""
"null","177010","HierDyfaxqo3pr","sub27","03","02","feedback","test","null","","","na","","67","",""
"888.2000000029802","177900","HierDyfaxqo3pr","sub27","03","02","rl","test","70","img/r_c_dots.png","4","70","color,pattern,shape","68","1",""
"null","178914","HierDyfaxqo3pr","sub27","03","02","feedback","test","null","","","na","","68","",""
"509.90000000596046","179426","HierDyfaxqo3pr","sub27","03","02","rl","test","72","img/p_t_diag.png","5","72","color,pattern,shape","69","1",""
"null","180434","HierDyfaxqo3pr","sub27","03","02","feedback","test","null","","","na","","69","",""
"922.5999999940395","181359","HierDyfaxqo3pr","sub27","03","02","rl","test","68","img/p_t_dots.png","7","75","color,pattern,shape","70","0",""
"null","182366","HierDyfaxqo3pr","sub27","03","02","feedback","test","null","","","na","","70","",""
"1092.2999999970198","183460","HierDyfaxqo3pr","sub27","03","02","rl","test","76","img/p_c_dots.png","8","76","color,pattern,shape","71","1",""
"null","184474","HierDyfaxqo3pr","sub27","03","02","feedback","test","null","","","na","","71","",""
"1022.8999999910593","185499","HierDyfaxqo3pr","sub27","03","02","rl","test","75","img/p_t_dots.png","7","75","color,pattern,shape","72","1",""
"null","186506","HierDyfaxqo3pr","sub27","03","02","feedback","test","null","","","na","","72","",""
"716.0999999940395","187224","HierDyfaxqo3pr","sub27","03","02","rl","test","83","img/r_c_diag.png","2","83","color,pattern,shape","73","1",""
"null","188232","HierDyfaxqo3pr","sub27","03","02","feedback","test","null","","","na","","73","",""
"947.9000000059605","189182","HierDyfaxqo3pr","sub27","03","02","rl","test","74","img/p_c_diag.png","6","74","color,pattern,shape","74","1",""
"null","190194","HierDyfaxqo3pr","sub27","03","02","feedback","test","null","","","na","","74","",""
"579.8999999910593","190776","HierDyfaxqo3pr","sub27","03","02","rl","test","72","img/p_t_diag.png","5","72","color,pattern,shape","75","1",""
"null","191782","HierDyfaxqo3pr","sub27","03","02","feedback","test","null","","","na","","75","",""
"656.5","192440","HierDyfaxqo3pr","sub27","03","02","rl","test","83","img/r_c_diag.png","2","83","color,pattern,shape","76","1",""
"null","193446","HierDyfaxqo3pr","sub27","03","02","feedback","test","null","","","na","","76","",""
"609","194056","HierDyfaxqo3pr","sub27","03","02","rl","test","70","img/r_c_dots.png","4","70","color,pattern,shape","77","1",""
"null","195066","HierDyfaxqo3pr","sub27","03","02","feedback","test","null","","","na","","77","",""
"795.0999999940395","195863","HierDyfaxqo3pr","sub27","03","02","rl","test","74","img/p_c_diag.png","6","74","color,pattern,shape","78","1",""
"null","196874","HierDyfaxqo3pr","sub27","03","02","feedback","test","null","","","na","","78","",""
"580","197455","HierDyfaxqo3pr","sub27","03","02","rl","test","68","img/r_t_dots.png","3","68","color,pattern,shape","79","1",""
"null","198466","HierDyfaxqo3pr","sub27","03","02","feedback","test","null","","","na","","79","",""
"1300.9000000059605","199768","HierDyfaxqo3pr","sub27","03","02","rl","test","75","img/p_t_dots.png","7","75","color,pattern,shape","80","1",""
"null","200774","HierDyfaxqo3pr","sub27","03","02","feedback","test","null","","","na","","80","",""
"896.8999999910593","201673","HierDyfaxqo3pr","sub27","03","02","rl","test","65","img/r_t_diag.png","1","65","color,pattern,shape","81","1",""
"null","202682","HierDyfaxqo3pr","sub27","03","02","feedback","test","null","","","na","","81","",""
"832.2999999970198","203516","HierDyfaxqo3pr","sub27","03","02","rl","test","70","img/r_c_dots.png","4","70","color,pattern,shape","82","1",""
"null","204530","HierDyfaxqo3pr","sub27","03","02","feedback","test","null","","","na","","82","",""
"735.6999999880791","205267","HierDyfaxqo3pr","sub27","03","02","rl","test","65","img/r_t_diag.png","1","65","color,pattern,shape","83","1",""
"null","206280","HierDyfaxqo3pr","sub27","03","02","feedback","test","null","","","na","","83","",""
"590.3000000119209","206872","HierDyfaxqo3pr","sub27","03","02","rl","test","65","img/r_t_diag.png","1","65","color,pattern,shape","84","1",""
"null","207882","HierDyfaxqo3pr","sub27","03","02","feedback","test","null","","","na","","84","",""
"686.2999999970198","208570","HierDyfaxqo3pr","sub27","03","02","rl","test","74","img/p_c_diag.png","6","74","color,pattern,shape","85","1",""
"null","209577","HierDyfaxqo3pr","sub27","03","02","feedback","test","null","","","na","","85","",""
"979.2000000029802","210558","HierDyfaxqo3pr","sub27","03","02","rl","test","76","img/p_c_dots.png","8","76","color,pattern,shape","86","1",""
"null","211570","HierDyfaxqo3pr","sub27","03","02","feedback","test","null","","","na","","86","",""
"1011.5999999940395","212583","HierDyfaxqo3pr","sub27","03","02","rl","test","72","img/p_t_diag.png","5","72","color,pattern,shape","87","1",""
"null","213594","HierDyfaxqo3pr","sub27","03","02","feedback","test","null","","","na","","87","",""
"717.7999999970198","214313","HierDyfaxqo3pr","sub27","03","02","rl","test","83","img/r_c_diag.png","2","83","color,pattern,shape","88","1",""
"null","215322","HierDyfaxqo3pr","sub27","03","02","feedback","test","null","","","na","","88","",""
"602.2999999970198","215926","HierDyfaxqo3pr","sub27","03","02","rl","test","68","img/r_t_dots.png","3","68","color,pattern,shape","89","1",""
"null","216938","HierDyfaxqo3pr","sub27","03","02","feedback","test","null","","","na","","89","",""
"591.5999999940395","217531","HierDyfaxqo3pr","sub27","03","02","rl","test","72","img/p_t_diag.png","5","72","color,pattern,shape","90","1",""
"null","218544","HierDyfaxqo3pr","sub27","03","02","feedback","test","null","","","na","","90","",""
"746.7999999970198","219292","HierDyfaxqo3pr","sub27","03","02","rl","test","75","img/p_t_dots.png","7","75","color,pattern,shape","91","1",""
"null","220306","HierDyfaxqo3pr","sub27","03","02","feedback","test","null","","","na","","91","",""
"931.7000000029802","221239","HierDyfaxqo3pr","sub27","03","02","rl","test","76","img/p_c_dots.png","8","76","color,pattern,shape","92","1",""
"null","222250","HierDyfaxqo3pr","sub27","03","02","feedback","test","null","","","na","","92","",""
"656.4000000059605","222908","HierDyfaxqo3pr","sub27","03","02","rl","test","68","img/r_t_dots.png","3","68","color,pattern,shape","93","1",""
"null","223918","HierDyfaxqo3pr","sub27","03","02","feedback","test","null","","","na","","93","",""
"899.7000000029802","224819","HierDyfaxqo3pr","sub27","03","02","rl","test","74","img/p_c_diag.png","6","74","color,pattern,shape","94","1",""
"null","225834","HierDyfaxqo3pr","sub27","03","02","feedback","test","null","","","na","","94","",""
"700.5","226536","HierDyfaxqo3pr","sub27","03","02","rl","test","70","img/r_c_dots.png","4","70","color,pattern,shape","95","1",""
"null","227543","HierDyfaxqo3pr","sub27","03","02","feedback","test","null","","","na","","95","",""
"891.5","228436","HierDyfaxqo3pr","sub27","03","02","rl","test","83","img/r_c_diag.png","2","83","color,pattern,shape","96","1",""
"null","229450","HierDyfaxqo3pr","sub27","03","02","feedback","test","null","","","na","","96","",""
"555.1000000089407","230006","HierDyfaxqo3pr","sub27","03","02","rl","test","72","img/p_c_diag.png","6","74","color,pattern,shape","97","0",""
"null","231010","HierDyfaxqo3pr","sub27","03","02","feedback","test","null","","","na","","97","",""
"755","231766","HierDyfaxqo3pr","sub27","03","02","rl","test","68","img/r_t_dots.png","3","68","color,pattern,shape","98","1",""
"null","232777","HierDyfaxqo3pr","sub27","03","02","feedback","test","null","","","na","","98","",""
"496.59999999403954","233276","HierDyfaxqo3pr","sub27","03","02","rl","test","65","img/r_t_diag.png","1","65","color,pattern,shape","99","1",""
"null","234290","HierDyfaxqo3pr","sub27","03","02","feedback","test","null","","","na","","99","",""
"629.5","234921","HierDyfaxqo3pr","sub27","03","02","rl","test","83","img/r_c_diag.png","2","83","color,pattern,shape","100","1",""
"null","235926","HierDyfaxqo3pr","sub27","03","02","feedback","test","null","","","na","","100","",""
"553.1000000089407","236480","HierDyfaxqo3pr","sub27","03","02","rl","test","83","img/r_c_diag.png","2","83","color,pattern,shape","101","1",""
"null","237490","HierDyfaxqo3pr","sub27","03","02","feedback","test","null","","","na","","101","",""
"798.7999999970198","238290","HierDyfaxqo3pr","sub27","03","02","rl","test","70","img/r_c_dots.png","4","70","color,pattern,shape","102","1",""
"null","239298","HierDyfaxqo3pr","sub27","03","02","feedback","test","null","","","na","","102","",""
"768.7000000029802","240068","HierDyfaxqo3pr","sub27","03","02","rl","test","75","img/p_t_dots.png","7","75","color,pattern,shape","103","1",""
"null","241078","HierDyfaxqo3pr","sub27","03","02","feedback","test","null","","","na","","103","",""
"596","241675","HierDyfaxqo3pr","sub27","03","02","rl","test","72","img/p_t_diag.png","5","72","color,pattern,shape","104","1",""
"null","242690","HierDyfaxqo3pr","sub27","03","02","feedback","test","null","","","na","","104","",""
"791","243482","HierDyfaxqo3pr","sub27","03","02","rl","test","76","img/p_c_dots.png","8","76","color,pattern,shape","105","1",""
"null","244490","HierDyfaxqo3pr","sub27","03","02","feedback","test","null","","","na","","105","",""
"614.2000000029802","245105","HierDyfaxqo3pr","sub27","03","02","rl","test","72","img/p_t_diag.png","5","72","color,pattern,shape","106","1",""
"null","246114","HierDyfaxqo3pr","sub27","03","02","feedback","test","null","","","na","","106","",""
"553.7999999970198","246669","HierDyfaxqo3pr","sub27","03","02","rl","test","65","img/r_t_diag.png","1","65","color,pattern,shape","107","1",""
"null","247682","HierDyfaxqo3pr","sub27","03","02","feedback","test","null","","","na","","107","",""
"650.4000000059605","248334","HierDyfaxqo3pr","sub27","03","02","rl","test","68","img/r_t_dots.png","3","68","color,pattern,shape","108","1",""
"null","249346","HierDyfaxqo3pr","sub27","03","02","feedback","test","null","","","na","","108","",""
"1441.7000000029802","250789","HierDyfaxqo3pr","sub27","03","02","rl","test","75","img/p_t_dots.png","7","75","color,pattern,shape","109","1",""
"null","251802","HierDyfaxqo3pr","sub27","03","02","feedback","test","null","","","na","","109","",""
"556.2999999970198","252360","HierDyfaxqo3pr","sub27","03","02","rl","test","76","img/p_c_dots.png","8","76","color,pattern,shape","110","1",""
"null","253370","HierDyfaxqo3pr","sub27","03","02","feedback","test","null","","","na","","110","",""
"761","254132","HierDyfaxqo3pr","sub27","03","02","rl","test","72","img/p_c_diag.png","6","74","color,pattern,shape","111","0",""
"null","255141","HierDyfaxqo3pr","sub27","03","02","feedback","test","null","","","na","","111","",""
"832.7999999970198","255976","HierDyfaxqo3pr","sub27","03","02","rl","test","74","img/p_c_diag.png","6","74","color,pattern,shape","112","1",""
"null","256981","HierDyfaxqo3pr","sub27","03","02","feedback","test","null","","","na","","112","",""
"1314.0999999940395","258297","HierDyfaxqo3pr","sub27","03","02","rl","test","68","img/r_c_dots.png","4","70","color,pattern,shape","113","0",""
"null","259302","HierDyfaxqo3pr","sub27","03","02","feedback","test","null","","","na","","113","",""
"677.1999999880791","259981","HierDyfaxqo3pr","sub27","03","02","rl","test","65","img/r_t_diag.png","1","65","color,pattern,shape","114","1",""
"null","260993","HierDyfaxqo3pr","sub27","03","02","feedback","test","null","","","na","","114","",""
"693.7000000029802","261689","HierDyfaxqo3pr","sub27","03","02","rl","test","70","img/r_c_dots.png","4","70","color,pattern,shape","115","1",""
"null","262697","HierDyfaxqo3pr","sub27","03","02","feedback","test","null","","","na","","115","",""
"584.2999999970198","263284","HierDyfaxqo3pr","sub27","03","02","rl","test","83","img/r_c_diag.png","2","83","color,pattern,shape","116","1",""
"null","264294","HierDyfaxqo3pr","sub27","03","02","feedback","test","null","","","na","","116","",""
"815.2999999970198","265111","HierDyfaxqo3pr","sub27","03","02","rl","test","68","img/r_t_dots.png","3","68","color,pattern,shape","117","1",""
"null","266119","HierDyfaxqo3pr","sub27","03","02","feedback","test","null","","","na","","117","",""
"1389.7999999970198","267510","HierDyfaxqo3pr","sub27","03","02","rl","test","76","img/p_c_dots.png","8","76","color,pattern,shape","118","1",""
"null","268517","HierDyfaxqo3pr","sub27","03","02","feedback","test","null","","","na","","118","",""
"647.0999999940395","269166","HierDyfaxqo3pr","sub27","03","02","rl","test","75","img/p_t_dots.png","7","75","color,pattern,shape","119","1",""
"null","270177","HierDyfaxqo3pr","sub27","03","02","feedback","test","null","","","na","","119","",""
"616.8999999910593","270796","HierDyfaxqo3pr","sub27","03","02","rl","test","72","img/p_t_diag.png","5","72","color,pattern,shape","120","1",""
"null","271809","HierDyfaxqo3pr","sub27","03","02","feedback","test","null","","","na","","120","",""
"560.8999999910593","272372","HierDyfaxqo3pr","sub27","03","02","rl","test","75","img/p_c_dots.png","8","76","color,pattern,shape","121","0",""
"null","273385","HierDyfaxqo3pr","sub27","03","02","feedback","test","null","","","na","","121","",""
"729","274116","HierDyfaxqo3pr","sub27","03","02","rl","test","72","img/p_t_diag.png","5","72","color,pattern,shape","122","1",""
"null","275129","HierDyfaxqo3pr","sub27","03","02","feedback","test","null","","","na","","122","",""
"634.8999999910593","275766","HierDyfaxqo3pr","sub27","03","02","rl","test","74","img/p_c_diag.png","6","74","color,pattern,shape","123","1",""
"null","276777","HierDyfaxqo3pr","sub27","03","02","feedback","test","null","","","na","","123","",""
"760.5999999940395","277539","HierDyfaxqo3pr","sub27","03","02","rl","test","70","img/r_c_dots.png","4","70","color,pattern,shape","124","1",""
"null","278545","HierDyfaxqo3pr","sub27","03","02","feedback","test","null","","","na","","124","",""
"893.9000000059605","279441","HierDyfaxqo3pr","sub27","03","02","rl","test","75","img/p_t_dots.png","7","75","color,pattern,shape","125","1",""
"null","280449","HierDyfaxqo3pr","sub27","03","02","feedback","test","null","","","na","","125","",""
"738.7000000029802","281190","HierDyfaxqo3pr","sub27","03","02","rl","test","65","img/r_t_diag.png","1","65","color,pattern,shape","126","1",""
"null","282201","HierDyfaxqo3pr","sub27","03","02","feedback","test","null","","","na","","126","",""
"636.6000000089407","282840","HierDyfaxqo3pr","sub27","03","02","rl","test","68","img/r_t_dots.png","3","68","color,pattern,shape","127","1",""
"null","283849","HierDyfaxqo3pr","sub27","03","02","feedback","test","null","","","na","","127","",""
"1254.6000000089407","285106","HierDyfaxqo3pr","sub27","03","02","rl","test","75","img/p_t_dots.png","7","75","color,pattern,shape","128","1",""
"null","286113","HierDyfaxqo3pr","sub27","03","02","feedback","test","null","","","na","","128","",""
"1160.8999999910593","287276","HierDyfaxqo3pr","sub27","03","02","rl","test","83","img/r_c_diag.png","2","83","color,pattern,shape","129","1",""
"null","288289","HierDyfaxqo3pr","sub27","03","02","feedback","test","null","","","na","","129","",""
"555","288846","HierDyfaxqo3pr","sub27","03","02","rl","test","65","img/r_t_diag.png","1","65","color,pattern,shape","130","1",""
"null","289857","HierDyfaxqo3pr","sub27","03","02","feedback","test","null","","","na","","130","",""
"667.2000000029802","290527","HierDyfaxqo3pr","sub27","03","02","rl","test","70","img/r_c_dots.png","4","70","color,pattern,shape","131","1",""
"null","291533","HierDyfaxqo3pr","sub27","03","02","feedback","test","null","","","na","","131","",""
"615.2999999970198","292151","HierDyfaxqo3pr","sub27","03","02","rl","test","68","img/r_t_dots.png","3","68","color,pattern,shape","132","1",""
"null","293162","HierDyfaxqo3pr","sub27","03","02","feedback","test","null","","","na","","132","",""
"791.1000000089407","293955","HierDyfaxqo3pr","sub27","03","02","rl","test","76","img/p_c_dots.png","8","76","color,pattern,shape","133","1",""
"null","294969","HierDyfaxqo3pr","sub27","03","02","feedback","test","null","","","na","","133","",""
"814.6000000089407","295786","HierDyfaxqo3pr","sub27","03","02","rl","test","83","img/r_c_diag.png","2","83","color,pattern,shape","134","1",""
"null","296789","HierDyfaxqo3pr","sub27","03","02","feedback","test","null","","","na","","134","",""
"809.0999999940395","297600","HierDyfaxqo3pr","sub27","03","02","rl","test","72","img/p_t_diag.png","5","72","color,pattern,shape","135","1",""
"null","298605","HierDyfaxqo3pr","sub27","03","02","feedback","test","null","","","na","","135","",""
"460.40000000596046","299068","HierDyfaxqo3pr","sub27","03","02","rl","test","72","img/p_t_diag.png","5","72","color,pattern,shape","136","1",""
"null","300078","HierDyfaxqo3pr","sub27","03","02","feedback","test","null","","","na","","136","",""
"483.1000000089407","300563","HierDyfaxqo3pr","sub27","03","02","rl","test","74","img/p_c_diag.png","6","74","color,pattern,shape","137","1",""
"null","301573","HierDyfaxqo3pr","sub27","03","02","feedback","test","null","","","na","","137","",""
"1186.7999999970198","302762","HierDyfaxqo3pr","sub27","03","02","rl","test","65","img/r_t_diag.png","1","65","color,pattern,shape","138","1",""
"null","303765","HierDyfaxqo3pr","sub27","03","02","feedback","test","null","","","na","","138","",""
"617.7999999970198","304385","HierDyfaxqo3pr","sub27","03","02","rl","test","74","img/p_c_diag.png","6","74","color,pattern,shape","139","1",""
"null","305393","HierDyfaxqo3pr","sub27","03","02","feedback","test","null","","","na","","139","",""
"695.5","306091","HierDyfaxqo3pr","sub27","03","02","rl","test","76","img/p_c_dots.png","8","76","color,pattern,shape","140","1",""
"null","307105","HierDyfaxqo3pr","sub27","03","02","feedback","test","null","","","na","","140","",""
"1077.9000000059605","308185","HierDyfaxqo3pr","sub27","03","02","rl","test","68","img/r_t_dots.png","3","68","color,pattern,shape","141","1",""
"null","309193","HierDyfaxqo3pr","sub27","03","02","feedback","test","null","","","na","","141","",""
"990.5999999940395","310186","HierDyfaxqo3pr","sub27","03","02","rl","test","70","img/r_c_dots.png","4","70","color,pattern,shape","142","1",""
"null","311189","HierDyfaxqo3pr","sub27","03","02","feedback","test","null","","","na","","142","",""
"1026.1000000089407","312218","HierDyfaxqo3pr","sub27","03","02","rl","test","75","img/p_t_dots.png","7","75","color,pattern,shape","143","1",""
"null","313225","HierDyfaxqo3pr","sub27","03","02","feedback","test","null","","","na","","143","",""
"910","314137","HierDyfaxqo3pr","sub27","03","02","rl","test","65","img/r_t_diag.png","1","65","color,pattern,shape","144","1",""
"null","315141","HierDyfaxqo3pr","sub27","03","02","feedback","test","null","","","na","","144","",""
"1053.5999999940395","316197","HierDyfaxqo3pr","sub27","03","02","rl","test","68","img/r_t_dots.png","3","68","color,pattern,shape","145","1",""
"null","317209","HierDyfaxqo3pr","sub27","03","02","feedback","test","null","","","na","","145","",""
"735.5","317947","HierDyfaxqo3pr","sub27","03","02","rl","test","83","img/r_c_diag.png","2","83","color,pattern,shape","146","1",""
"null","318961","HierDyfaxqo3pr","sub27","03","02","feedback","test","null","","","na","","146","",""
"544.6000000089407","319508","HierDyfaxqo3pr","sub27","03","02","rl","test","83","img/r_c_diag.png","2","83","color,pattern,shape","147","1",""
"null","320521","HierDyfaxqo3pr","sub27","03","02","feedback","test","null","","","na","","147","",""
"1324.300000011921","321848","HierDyfaxqo3pr","sub27","03","02","rl","test","76","img/p_c_dots.png","8","76","color,pattern,shape","148","1",""
"null","322857","HierDyfaxqo3pr","sub27","03","02","feedback","test","null","","","na","","148","",""
"657.3000000119209","323517","HierDyfaxqo3pr","sub27","03","02","rl","test","75","img/p_t_dots.png","7","75","color,pattern,shape","149","1",""
"null","324529","HierDyfaxqo3pr","sub27","03","02","feedback","test","null","","","na","","149","",""
"720.1000000089407","325252","HierDyfaxqo3pr","sub27","03","02","rl","test","83","img/r_c_diag.png","2","83","color,pattern,shape","150","1",""
"null","326265","HierDyfaxqo3pr","sub27","03","02","feedback","test","null","","","na","","150","",""
"825.3000000119209","327093","HierDyfaxqo3pr","sub27","03","02","rl","test","72","img/p_t_diag.png","5","72","color,pattern,shape","151","1",""
"null","328101","HierDyfaxqo3pr","sub27","03","02","feedback","test","null","","","na","","151","",""
"710.1000000089407","328814","HierDyfaxqo3pr","sub27","03","02","rl","test","70","img/r_c_dots.png","4","70","color,pattern,shape","152","1",""
"null","329821","HierDyfaxqo3pr","sub27","03","02","feedback","test","null","","","na","","152","",""
"655.7999999970198","330478","HierDyfaxqo3pr","sub27","03","02","rl","test","74","img/p_c_diag.png","6","74","color,pattern,shape","153","1",""
"null","331489","HierDyfaxqo3pr","sub27","03","02","feedback","test","null","","","na","","153","",""
"648.4000000059605","332140","HierDyfaxqo3pr","sub27","03","02","rl","test","68","img/r_t_dots.png","3","68","color,pattern,shape","154","1",""
"null","333153","HierDyfaxqo3pr","sub27","03","02","feedback","test","null","","","na","","154","",""
"712.2000000029802","333868","HierDyfaxqo3pr","sub27","03","02","rl","test","70","img/r_c_dots.png","4","70","color,pattern,shape","155","1",""
"null","334881","HierDyfaxqo3pr","sub27","03","02","feedback","test","null","","","na","","155","",""
"498.09999999403954","335381","HierDyfaxqo3pr","sub27","03","02","rl","test","72","img/p_t_diag.png","5","72","color,pattern,shape","156","1",""
"null","336393","HierDyfaxqo3pr","sub27","03","02","feedback","test","null","","","na","","156","",""
"577.8999999910593","336973","HierDyfaxqo3pr","sub27","03","02","rl","test","74","img/p_c_diag.png","6","74","color,pattern,shape","157","1",""
"null","337981","HierDyfaxqo3pr","sub27","03","02","feedback","test","null","","","na","","157","",""
"602","338585","HierDyfaxqo3pr","sub27","03","02","rl","test","75","img/p_t_dots.png","7","75","color,pattern,shape","158","1",""
"null","339593","HierDyfaxqo3pr","sub27","03","02","feedback","test","null","","","na","","158","",""
"621","340216","HierDyfaxqo3pr","sub27","03","02","rl","test","65","img/r_t_diag.png","1","65","color,pattern,shape","159","1",""
"null","341225","HierDyfaxqo3pr","sub27","03","02","feedback","test","null","","","na","","159","",""
"942.6000000089407","342170","HierDyfaxqo3pr","sub27","03","02","rl","test","75","img/p_t_dots.png","7","75","color,pattern,shape","160","1",""
"null","343177","HierDyfaxqo3pr","sub27","03","02","feedback","test","null","","","na","","160","",""
"684","343863","HierDyfaxqo3pr","sub27","03","02","rl","test","76","img/p_c_dots.png","8","76","color,pattern,shape","161","1",""
"null","344873","HierDyfaxqo3pr","sub27","03","02","feedback","test","null","","","na","","161","",""
"636.0999999940395","345511","HierDyfaxqo3pr","sub27","03","02","rl","test","76","img/p_c_dots.png","8","76","color,pattern,shape","162","1",""
"null","346521","HierDyfaxqo3pr","sub27","03","02","feedback","test","null","","","na","","162","",""
"534","347057","HierDyfaxqo3pr","sub27","03","02","rl","test","72","img/p_t_diag.png","5","72","color,pattern,shape","163","1",""
"null","348065","HierDyfaxqo3pr","sub27","03","02","feedback","test","null","","","na","","163","",""
"535.5999999940395","348603","HierDyfaxqo3pr","sub27","03","02","rl","test","65","img/r_t_diag.png","1","65","color,pattern,shape","164","1",""
"null","349617","HierDyfaxqo3pr","sub27","03","02","feedback","test","null","","","na","","164","",""
"524.5999999940395","350144","HierDyfaxqo3pr","sub27","03","02","rl","test","83","img/r_c_diag.png","2","83","color,pattern,shape","165","1",""
"null","351154","HierDyfaxqo3pr","sub27","03","02","feedback","test","null","","","na","","165","",""
"1359.9000000059605","352515","HierDyfaxqo3pr","sub27","03","02","rl","test","70","img/r_c_dots.png","4","70","color,pattern,shape","166","1",""
"null","353529","HierDyfaxqo3pr","sub27","03","02","feedback","test","null","","","na","","166","",""
"655.8999999910593","354187","HierDyfaxqo3pr","sub27","03","02","rl","test","70","img/r_t_dots.png","3","68","color,pattern,shape","167","0",""
"null","355201","HierDyfaxqo3pr","sub27","03","02","feedback","test","null","","","na","","167","",""
"539.5999999940395","355743","HierDyfaxqo3pr","sub27","03","02","rl","test","72","img/p_c_diag.png","6","74","color,pattern,shape","168","0",""
"null","356753","HierDyfaxqo3pr","sub27","03","02","feedback","test","null","","","na","","168","",""
"1040.5","357796","HierDyfaxqo3pr","sub27","03","02","rl","test","68","img/r_t_dots.png","3","68","color,pattern,shape","169","1",""
"null","358809","HierDyfaxqo3pr","sub27","03","02","feedback","test","null","","","na","","169","",""
"607.2000000029802","359418","HierDyfaxqo3pr","sub27","03","02","rl","test","72","img/p_t_diag.png","5","72","color,pattern,shape","170","1",""
"null","360433","HierDyfaxqo3pr","sub27","03","02","feedback","test","null","","","na","","170","",""
"759.1999999880791","361194","HierDyfaxqo3pr","sub27","03","02","rl","test","74","img/p_c_diag.png","6","74","color,pattern,shape","171","1",""
"null","362205","HierDyfaxqo3pr","sub27","03","02","feedback","test","null","","","na","","171","",""
"736.7000000029802","362944","HierDyfaxqo3pr","sub27","03","02","rl","test","75","img/p_t_dots.png","7","75","color,pattern,shape","172","1",""
"null","363949","HierDyfaxqo3pr","sub27","03","02","feedback","test","null","","","na","","172","",""
"1975.699999988079","365927","HierDyfaxqo3pr","sub27","03","02","rl","test","83","img/r_c_diag.png","2","83","color,pattern,shape","173","1",""
"null","366937","HierDyfaxqo3pr","sub27","03","02","feedback","test","null","","","na","","173","",""
"698.5999999940395","367638","HierDyfaxqo3pr","sub27","03","02","rl","test","65","img/r_t_diag.png","1","65","color,pattern,shape","174","1",""
"null","368649","HierDyfaxqo3pr","sub27","03","02","feedback","test","null","","","na","","174","",""
"492.5","369143","HierDyfaxqo3pr","sub27","03","02","rl","test","65","img/r_t_diag.png","1","65","color,pattern,shape","175","1",""
"null","370149","HierDyfaxqo3pr","sub27","03","02","feedback","test","null","","","na","","175","",""
"722.7999999970198","370874","HierDyfaxqo3pr","sub27","03","02","rl","test","76","img/p_c_dots.png","8","76","color,pattern,shape","176","1",""
"null","371881","HierDyfaxqo3pr","sub27","03","02","feedback","test","null","","","na","","176","",""
"2210.0999999940395","374093","HierDyfaxqo3pr","sub27","03","02","rl","test","83","img/r_c_diag.png","2","83","color,pattern,shape","177","1",""
"null","375101","HierDyfaxqo3pr","sub27","03","02","feedback","test","null","","","na","","177","",""
"578.7000000029802","375682","HierDyfaxqo3pr","sub27","03","02","rl","test","70","img/r_c_dots.png","4","70","color,pattern,shape","178","1",""
"null","376689","HierDyfaxqo3pr","sub27","03","02","feedback","test","null","","","na","","178","",""
"516.7000000029802","377208","HierDyfaxqo3pr","sub27","03","02","rl","test","70","img/r_c_dots.png","4","70","color,pattern,shape","179","1",""
"null","378217","HierDyfaxqo3pr","sub27","03","02","feedback","test","null","","","na","","179","",""
"1054.7999999970198","379274","HierDyfaxqo3pr","sub27","03","02","rl","test","76","img/p_c_dots.png","8","76","color,pattern,shape","180","1",""
"null","380289","HierDyfaxqo3pr","sub27","03","02","feedback","test","null","","","na","","180","",""
"972.5999999940395","381264","HierDyfaxqo3pr","sub27","03","02","rl","test","65","img/r_t_diag.png","1","65","color,pattern,shape","181","1",""
"null","382273","HierDyfaxqo3pr","sub27","03","02","feedback","test","null","","","na","","181","",""
"1017.9000000059605","383293","HierDyfaxqo3pr","sub27","03","02","rl","test","68","img/p_t_dots.png","7","75","color,pattern,shape","182","0",""
"null","384305","HierDyfaxqo3pr","sub27","03","02","feedback","test","null","","","na","","182","",""
"870.0999999940395","385177","HierDyfaxqo3pr","sub27","03","02","rl","test","72","img/p_t_diag.png","5","72","color,pattern,shape","183","1",""
"null","386185","HierDyfaxqo3pr","sub27","03","02","feedback","test","null","","","na","","183","",""
"585.9000000059605","386773","HierDyfaxqo3pr","sub27","03","02","rl","test","68","img/r_t_dots.png","3","68","color,pattern,shape","184","1",""
"null","387785","HierDyfaxqo3pr","sub27","03","02","feedback","test","null","","","na","","184","",""
"1044.7999999970198","388831","HierDyfaxqo3pr","sub27","03","02","rl","test","74","img/p_c_diag.png","6","74","color,pattern,shape","185","1",""
"null","389841","HierDyfaxqo3pr","sub27","03","02","feedback","test","null","","","na","","185","",""
"528.7000000029802","390371","HierDyfaxqo3pr","sub27","03","02","rl","test","76","img/p_c_dots.png","8","76","color,pattern,shape","186","1",""
"null","391382","HierDyfaxqo3pr","sub27","03","02","feedback","test","null","","","na","","186","",""
"1796","393180","HierDyfaxqo3pr","sub27","03","02","rl","test","75","img/p_t_dots.png","7","75","color,pattern,shape","187","1",""
"null","394193","HierDyfaxqo3pr","sub27","03","02","feedback","test","null","","","na","","187","",""
"1030.5999999940395","395225","HierDyfaxqo3pr","sub27","03","02","rl","test","70","img/r_c_dots.png","4","70","color,pattern,shape","188","1",""
"null","396232","HierDyfaxqo3pr","sub27","03","02","feedback","test","null","","","na","","188","",""
"1231.0999999940395","397465","HierDyfaxqo3pr","sub27","03","02","rl","test","74","img/p_c_diag.png","6","74","color,pattern,shape","189","1",""
"null","398473","HierDyfaxqo3pr","sub27","03","02","feedback","test","null","","","na","","189","",""
"617","399092","HierDyfaxqo3pr","sub27","03","02","rl","test","72","img/p_t_diag.png","5","72","color,pattern,shape","190","1",""
"null","400105","HierDyfaxqo3pr","sub27","03","02","feedback","test","null","","","na","","190","",""
"845.5","400952","HierDyfaxqo3pr","sub27","03","02","rl","test","83","img/r_c_diag.png","2","83","color,pattern,shape","191","1",""
"null","401961","HierDyfaxqo3pr","sub27","03","02","feedback","test","null","","","na","","191","",""
"590.9000000059605","402554","HierDyfaxqo3pr","sub27","03","02","rl","test","68","img/r_t_dots.png","3","68","color,pattern,shape","192","1",""
"null","403561","HierDyfaxqo3pr","sub27","03","02","feedback","test","null","","","na","","192","",""
"1603.3999999910593","405166","HierDyfaxqo3pr","sub27","03","02","rl","test","83","img/r_c_diag.png","2","83","color,pattern,shape","193","1",""
"null","406177","HierDyfaxqo3pr","sub27","03","02","feedback","test","null","","","na","","193","",""
"671.1000000089407","406850","HierDyfaxqo3pr","sub27","03","02","rl","test","68","img/r_t_dots.png","3","68","color,pattern,shape","194","1",""
"null","407857","HierDyfaxqo3pr","sub27","03","02","feedback","test","null","","","na","","194","",""
"725","408584","HierDyfaxqo3pr","sub27","03","02","rl","test","72","img/p_t_diag.png","5","72","color,pattern,shape","195","1",""
"null","409593","HierDyfaxqo3pr","sub27","03","02","feedback","test","null","","","na","","195","",""
"830.1000000089407","410425","HierDyfaxqo3pr","sub27","03","02","rl","test","65","img/r_t_diag.png","1","65","color,pattern,shape","196","1",""
"null","411429","HierDyfaxqo3pr","sub27","03","02","feedback","test","null","","","na","","196","",""
"1121.0999999940395","412552","HierDyfaxqo3pr","sub27","03","02","rl","test","76","img/p_c_dots.png","8","76","color,pattern,shape","197","1",""
"null","413556","HierDyfaxqo3pr","sub27","03","02","feedback","test","null","","","na","","197","",""
"591.5999999940395","414150","HierDyfaxqo3pr","sub27","03","02","rl","test","75","img/p_t_dots.png","7","75","color,pattern,shape","198","1",""
"null","415153","HierDyfaxqo3pr","sub27","03","02","feedback","test","null","","","na","","198","",""
"900.5999999940395","416056","HierDyfaxqo3pr","sub27","03","02","rl","test","74","img/p_c_diag.png","6","74","color,pattern,shape","199","1",""
"null","417065","HierDyfaxqo3pr","sub27","03","02","feedback","test","null","","","na","","199","",""
"826.0999999940395","417893","HierDyfaxqo3pr","sub27","03","02","rl","test","70","img/r_c_dots.png","4","70","color,pattern,shape","200","1",""
"null","418905","HierDyfaxqo3pr","sub27","03","02","feedback","test","null","","","na","","200","",""
"1201.1000000089407","420108","HierDyfaxqo3pr","sub27","03","02","rl","test","75","img/p_t_dots.png","7","75","color,pattern,shape","201","1",""
"null","421121","HierDyfaxqo3pr","sub27","03","02","feedback","test","null","","","na","","201","",""
"718.1999999880791","421841","HierDyfaxqo3pr","sub27","03","02","rl","test","68","img/r_t_dots.png","3","68","color,pattern,shape","202","1",""
"null","422849","HierDyfaxqo3pr","sub27","03","02","feedback","test","null","","","na","","202","",""
"707.4000000059605","423558","HierDyfaxqo3pr","sub27","03","02","rl","test","76","img/p_c_dots.png","8","76","color,pattern,shape","203","1",""
"null","424565","HierDyfaxqo3pr","sub27","03","02","feedback","test","null","","","na","","203","",""
"605.8999999910593","425173","HierDyfaxqo3pr","sub27","03","02","rl","test","72","img/p_t_diag.png","5","72","color,pattern,shape","204","1",""
"null","426185","HierDyfaxqo3pr","sub27","03","02","feedback","test","null","","","na","","204","",""
"524.6000000089407","426711","HierDyfaxqo3pr","sub27","03","02","rl","test","65","img/r_t_diag.png","1","65","color,pattern,shape","205","1",""
"null","427721","HierDyfaxqo3pr","sub27","03","02","feedback","test","null","","","na","","205","",""
"580.2000000029802","428302","HierDyfaxqo3pr","sub27","03","02","rl","test","83","img/r_c_diag.png","2","83","color,pattern,shape","206","1",""
"null","429312","HierDyfaxqo3pr","sub27","03","02","feedback","test","null","","","na","","206","",""
"796","430109","HierDyfaxqo3pr","sub27","03","02","rl","test","70","img/r_c_dots.png","4","70","color,pattern,shape","207","1",""
"null","431121","HierDyfaxqo3pr","sub27","03","02","feedback","test","null","","","na","","207","",""
"599.5","431722","HierDyfaxqo3pr","sub27","03","02","rl","test","70","img/r_c_dots.png","4","70","color,pattern,shape","208","1",""
"null","432729","HierDyfaxqo3pr","sub27","03","02","feedback","test","null","","","na","","208","",""
"1671.2000000029802","434401","HierDyfaxqo3pr","sub27","03","02","rl","test","74","img/p_c_diag.png","6","74","color,pattern,shape","209","1",""
"null","435409","HierDyfaxqo3pr","sub27","03","02","feedback","test","null","","","na","","209","",""
"736.5","436147","HierDyfaxqo3pr","sub27","03","02","rl","test","70","img/r_c_diag.png","2","83","color,pattern,shape","210","0",""
"null","437161","HierDyfaxqo3pr","sub27","03","02","feedback","test","null","","","na","","210","",""
"840.4000000059605","438003","HierDyfaxqo3pr","sub27","03","02","rl","test","65","img/r_t_diag.png","1","65","color,pattern,shape","211","1",""
"null","439017","HierDyfaxqo3pr","sub27","03","02","feedback","test","null","","","na","","211","",""
"1020.7999999970198","440039","HierDyfaxqo3pr","sub27","03","02","rl","test","74","img/p_c_diag.png","6","74","color,pattern,shape","212","1",""
"null","441049","HierDyfaxqo3pr","sub27","03","02","feedback","test","null","","","na","","212","",""
"694.5","441745","HierDyfaxqo3pr","sub27","03","02","rl","test","75","img/r_t_dots.png","3","68","color,pattern,shape","213","0",""
"null","442753","HierDyfaxqo3pr","sub27","03","02","feedback","test","null","","","na","","213","",""
"785.4000000059605","443540","HierDyfaxqo3pr","sub27","03","02","rl","test","75","img/p_t_dots.png","7","75","color,pattern,shape","214","1",""
"null","444553","HierDyfaxqo3pr","sub27","03","02","feedback","test","null","","","na","","214","",""
"581.3999999910593","445135","HierDyfaxqo3pr","sub27","03","02","rl","test","76","img/p_c_dots.png","8","76","color,pattern,shape","215","1",""
"null","446145","HierDyfaxqo3pr","sub27","03","02","feedback","test","null","","","na","","215","",""
"774.2999999970198","446920","HierDyfaxqo3pr","sub27","03","02","rl","test","72","img/p_t_diag.png","5","72","color,pattern,shape","216","1",""
"null","447929","HierDyfaxqo3pr","sub27","03","02","feedback","test","null","","","na","","216","",""
"594.2000000029802","448524","HierDyfaxqo3pr","sub27","03","02","rl","test","83","img/r_c_diag.png","2","83","color,pattern,shape","217","1",""
"null","449533","HierDyfaxqo3pr","sub27","03","02","feedback","test","null","","","na","","217","",""
"687.5","450222","HierDyfaxqo3pr","sub27","03","02","rl","test","72","img/p_t_diag.png","5","72","color,pattern,shape","218","1",""
"null","451229","HierDyfaxqo3pr","sub27","03","02","feedback","test","null","","","na","","218","",""
"702.0999999940395","451932","HierDyfaxqo3pr","sub27","03","02","rl","test","65","img/r_t_diag.png","1","65","color,pattern,shape","219","1",""
"null","452945","HierDyfaxqo3pr","sub27","03","02","feedback","test","null","","","na","","219","",""
"794.0999999940395","453740","HierDyfaxqo3pr","sub27","03","02","rl","test","76","img/p_c_dots.png","8","76","color,pattern,shape","220","1",""
"null","454753","HierDyfaxqo3pr","sub27","03","02","feedback","test","null","","","na","","220","",""
"1710.4000000059605","456464","HierDyfaxqo3pr","sub27","03","02","rl","test","74","img/p_c_diag.png","6","74","color,pattern,shape","221","1",""
"null","457469","HierDyfaxqo3pr","sub27","03","02","feedback","test","null","","","na","","221","",""
"1207.8999999910593","458678","HierDyfaxqo3pr","sub27","03","02","rl","test","70","img/r_c_dots.png","4","70","color,pattern,shape","222","1",""
"null","459685","HierDyfaxqo3pr","sub27","03","02","feedback","test","null","","","na","","222","",""
"551.2000000029802","460237","HierDyfaxqo3pr","sub27","03","02","rl","test","70","img/r_c_dots.png","4","70","color,pattern,shape","223","1",""
"null","461245","HierDyfaxqo3pr","sub27","03","02","feedback","test","null","","","na","","223","",""
"777.5999999940395","462024","HierDyfaxqo3pr","sub27","03","02","rl","test","75","img/p_t_dots.png","7","75","color,pattern,shape","224","1",""
"null","463033","HierDyfaxqo3pr","sub27","03","02","feedback","test","null","","","na","","224","",""
"622.5999999940395","463657","HierDyfaxqo3pr","sub27","03","02","rl","test","76","img/p_c_dots.png","8","76","color,pattern,shape","225","1",""
"null","464665","HierDyfaxqo3pr","sub27","03","02","feedback","test","null","","","na","","225","",""
"870.9000000059605","465537","HierDyfaxqo3pr","sub27","03","02","rl","test","68","img/r_t_dots.png","3","68","color,pattern,shape","226","1",""
"null","466540","HierDyfaxqo3pr","sub27","03","02","feedback","test","null","","","na","","226","",""
"603","467145","HierDyfaxqo3pr","sub27","03","02","rl","test","75","img/p_t_dots.png","7","75","color,pattern,shape","227","1",""
"null","468153","HierDyfaxqo3pr","sub27","03","02","feedback","test","null","","","na","","227","",""
"1019.5","469174","HierDyfaxqo3pr","sub27","03","02","rl","test","74","img/p_c_diag.png","6","74","color,pattern,shape","228","1",""
"null","470181","HierDyfaxqo3pr","sub27","03","02","feedback","test","null","","","na","","228","",""
"870.6000000089407","471053","HierDyfaxqo3pr","sub27","03","02","rl","test","68","img/r_t_dots.png","3","68","color,pattern,shape","229","1",""
"null","472065","HierDyfaxqo3pr","sub27","03","02","feedback","test","null","","","na","","229","",""
"611.5999999940395","472678","HierDyfaxqo3pr","sub27","03","02","rl","test","65","img/r_t_diag.png","1","65","color,pattern,shape","230","1",""
"null","473689","HierDyfaxqo3pr","sub27","03","02","feedback","test","null","","","na","","230","",""
"873.7000000029802","474564","HierDyfaxqo3pr","sub27","03","02","rl","test","83","img/r_c_diag.png","2","83","color,pattern,shape","231","1",""
"null","475573","HierDyfaxqo3pr","sub27","03","02","feedback","test","null","","","na","","231","",""
"560.8000000119209","476136","HierDyfaxqo3pr","sub27","03","02","rl","test","74","img/p_c_diag.png","6","74","color,pattern,shape","232","1",""
"null","477145","HierDyfaxqo3pr","sub27","03","02","feedback","test","null","","","na","","232","",""
"555.7000000029802","477703","HierDyfaxqo3pr","sub27","03","02","rl","test","72","img/p_t_diag.png","5","72","color,pattern,shape","233","1",""
"null","478709","HierDyfaxqo3pr","sub27","03","02","feedback","test","null","","","na","","233","",""
"480.6000000089407","479191","HierDyfaxqo3pr","sub27","03","02","rl","test","72","img/p_t_diag.png","5","72","color,pattern,shape","234","1",""
"null","480201","HierDyfaxqo3pr","sub27","03","02","feedback","test","null","","","na","","234","",""
"962.3999999910593","481165","HierDyfaxqo3pr","sub27","03","02","rl","test","68","img/r_t_dots.png","3","68","color,pattern,shape","235","1",""
"null","482177","HierDyfaxqo3pr","sub27","03","02","feedback","test","null","","","na","","235","",""
"733.7000000029802","482912","HierDyfaxqo3pr","sub27","03","02","rl","test","72","img/p_t_diag.png","5","72","color,pattern,shape","236","1",""
"null","483921","HierDyfaxqo3pr","sub27","03","02","feedback","test","null","","","na","","236","",""
"1256","485179","HierDyfaxqo3pr","sub27","03","02","rl","test","65","img/r_t_diag.png","1","65","color,pattern,shape","237","1",""
"null","486193","HierDyfaxqo3pr","sub27","03","02","feedback","test","null","","","na","","237","",""
"816.7000000029802","487011","HierDyfaxqo3pr","sub27","03","02","rl","test","70","img/r_c_dots.png","4","70","color,pattern,shape","238","1",""
"null","488025","HierDyfaxqo3pr","sub27","03","02","feedback","test","null","","","na","","238","",""
"573.8999999910593","488600","HierDyfaxqo3pr","sub27","03","02","rl","test","83","img/r_c_diag.png","2","83","color,pattern,shape","239","1",""
"null","489608","HierDyfaxqo3pr","sub27","03","02","feedback","test","null","","","na","","239","",""
"566.5","490176","HierDyfaxqo3pr","sub27","03","02","rl","test","76","img/p_c_dots.png","8","76","color,pattern,shape","240","1",""
"null","491184","HierDyfaxqo3pr","sub27","03","02","feedback","test","null","","","na","","240","",""
"573.4000000059605","491759","HierDyfaxqo3pr","sub27","03","02","rl","test","75","img/p_t_dots.png","7","75","color,pattern,shape","241","1",""
"null","492768","HierDyfaxqo3pr","sub27","03","02","feedback","test","null","","","na","","241","",""
"676.7999999970198","493446","HierDyfaxqo3pr","sub27","03","02","rl","test","76","img/p_c_dots.png","8","76","color,pattern,shape","242","1",""
"null","494456","HierDyfaxqo3pr","sub27","03","02","feedback","test","null","","","na","","242","",""
"701.4000000059605","495159","HierDyfaxqo3pr","sub27","03","02","rl","test","70","img/r_c_dots.png","4","70","color,pattern,shape","243","1",""
"null","496164","HierDyfaxqo3pr","sub27","03","02","feedback","test","null","","","na","","243","",""
"2344.9000000059605","498511","HierDyfaxqo3pr","sub27","03","02","rl","test","75","img/p_t_dots.png","7","75","color,pattern,shape","244","1",""
"null","499517","HierDyfaxqo3pr","sub27","03","02","feedback","test","null","","","na","","244","",""
"590.7000000029802","500110","HierDyfaxqo3pr","sub27","03","02","rl","test","65","img/r_t_diag.png","1","65","color,pattern,shape","245","1",""
"null","501120","HierDyfaxqo3pr","sub27","03","02","feedback","test","null","","","na","","245","",""
"612.5","501735","HierDyfaxqo3pr","sub27","03","02","rl","test","75","img/r_t_dots.png","3","68","color,pattern,shape","246","0",""
"null","502745","HierDyfaxqo3pr","sub27","03","02","feedback","test","null","","","na","","246","",""
"1124.2000000029802","503870","HierDyfaxqo3pr","sub27","03","02","rl","test","74","img/p_c_diag.png","6","74","color,pattern,shape","247","1",""
"null","504881","HierDyfaxqo3pr","sub27","03","02","feedback","test","null","","","na","","247","",""
"1378.6000000089407","506261","HierDyfaxqo3pr","sub27","03","02","rl","test","83","img/r_c_diag.png","2","83","color,pattern,shape","248","1",""
"null","507273","HierDyfaxqo3pr","sub27","03","02","feedback","test","null","","","na","","248","",""
"14575.29999999702","521855","HierDyfaxqo3pr","sub27","03","02","","","","","","","","","","{""Q0"":""10""}"
"13121.59999999404","534980","HierDyfaxqo3pr","sub27","03","02","","","","","","","","","","{""Q0"":""check color for which hand, then pattern for finger""}"
"3511.4000000059605","538493","HierDyfaxqo3pr","sub27","03","02","","","","","","","","","",""
