"rt","time_elapsed","subject","subID","group","day","trialType","phase","key_press","stim","stimNum","corrresp","hierarchy","trialNum","corr","responses"
"1510.5999999642372","1514","HierDyepwlbdcq","sub17","05","02","","","","","","","","","",""
"","10184","HierDyepwlbdcq","sub17","05","02","fullscreen","","","","","","","","",""
"3180","13365","HierDyepwlbdcq","sub17","05","02","","prac","","","","","","","",""
"34424","47791","HierDyepwlbdcq","sub17","05","02","","","32","","","","","","",""
"2383.5","50175","HierDyepwlbdcq","sub17","05","02","","prac","","","","","","","",""
"61","50238","HierDyepwlbdcq","sub17","05","02","rl","test","70","img/b_c_dots.png","5","72","pattern,shape,color","1","0",""
"null","51248","HierDyepwlbdcq","sub17","05","02","feedback","test","null","","","na","","1","",""
"916","52166","HierDyepwlbdcq","sub17","05","02","rl","test","65","img/b_c_diag.png","1","65","pattern,shape,color","2","1",""
"null","53174","HierDyepwlbdcq","sub17","05","02","feedback","test","null","","","na","","2","",""
"1588.6000000238419","54764","HierDyepwlbdcq","sub17","05","02","rl","test","70","img/p_d_diag.png","4","70","pattern,shape,color","3","1",""
"null","55771","HierDyepwlbdcq","sub17","05","02","feedback","test","null","","","na","","3","",""
"1403.6000000238419","57176","HierDyepwlbdcq","sub17","05","02","rl","test","74","img/p_c_dots.png","6","74","pattern,shape,color","4","1",""
"null","58183","HierDyepwlbdcq","sub17","05","02","feedback","test","null","","","na","","4","",""
"1373.0999999642372","59558","HierDyepwlbdcq","sub17","05","02","rl","test","68","img/b_d_diag.png","3","68","pattern,shape,color","5","1",""
"null","60570","HierDyepwlbdcq","sub17","05","02","feedback","test","null","","","na","","5","",""
"731.1000000238419","61303","HierDyepwlbdcq","sub17","05","02","rl","test","83","img/p_c_diag.png","2","83","pattern,shape,color","6","1",""
"null","62312","HierDyepwlbdcq","sub17","05","02","feedback","test","null","","","na","","6","",""
"1190.1000000238419","63504","HierDyepwlbdcq","sub17","05","02","rl","test","75","img/b_d_dots.png","7","75","pattern,shape,color","7","1",""
"null","64513","HierDyepwlbdcq","sub17","05","02","feedback","test","null","","","na","","7","",""
"1125.7000000476837","65640","HierDyepwlbdcq","sub17","05","02","rl","test","68","img/b_d_diag.png","3","68","pattern,shape,color","8","1",""
"null","66646","HierDyepwlbdcq","sub17","05","02","feedback","test","null","","","na","","8","",""
"2340.5","68988","HierDyepwlbdcq","sub17","05","02","rl","test","76","img/p_d_dots.png","8","76","pattern,shape,color","9","1",""
"null","69994","HierDyepwlbdcq","sub17","05","02","feedback","test","null","","","na","","9","",""
"513","70509","HierDyepwlbdcq","sub17","05","02","rl","test","76","img/p_d_dots.png","8","76","pattern,shape,color","10","1",""
"null","71523","HierDyepwlbdcq","sub17","05","02","feedback","test","null","","","na","","10","",""
"1272.699999988079","72797","HierDyepwlbdcq","sub17","05","02","rl","test","83","img/p_c_diag.png","2","83","pattern,shape,color","11","1",""
"null","73809","HierDyepwlbdcq","sub17","05","02","feedback","test","null","","","na","","11","",""
"1150.6000000238419","74961","HierDyepwlbdcq","sub17","05","02","rl","test","72","img/b_c_dots.png","5","72","pattern,shape,color","12","1",""
"null","75967","HierDyepwlbdcq","sub17","05","02","feedback","test","null","","","na","","12","",""
"1122.6000000238419","77091","HierDyepwlbdcq","sub17","05","02","rl","test","75","img/b_d_dots.png","7","75","pattern,shape,color","13","1",""
"null","78097","HierDyepwlbdcq","sub17","05","02","feedback","test","null","","","na","","13","",""
"1457.6000000238419","79556","HierDyepwlbdcq","sub17","05","02","rl","test","74","img/p_c_dots.png","6","74","pattern,shape,color","14","1",""
"null","80571","HierDyepwlbdcq","sub17","05","02","feedback","test","null","","","na","","14","",""
"1220","81793","HierDyepwlbdcq","sub17","05","02","rl","test","83","img/b_c_diag.png","1","65","pattern,shape,color","15","0",""
"null","82802","HierDyepwlbdcq","sub17","05","02","feedback","test","null","","","na","","15","",""
"1244.300000011921","84048","HierDyepwlbdcq","sub17","05","02","rl","test","70","img/p_d_diag.png","4","70","pattern,shape,color","16","1",""
"null","85055","HierDyepwlbdcq","sub17","05","02","feedback","test","null","","","na","","16","",""
"998.3000000119209","86054","HierDyepwlbdcq","sub17","05","02","rl","test","76","img/p_d_dots.png","8","76","pattern,shape,color","17","1",""
"null","87063","HierDyepwlbdcq","sub17","05","02","feedback","test","null","","","na","","17","",""
"1252.8999999761581","88318","HierDyepwlbdcq","sub17","05","02","rl","test","70","img/p_d_diag.png","4","70","pattern,shape,color","18","1",""
"null","89330","HierDyepwlbdcq","sub17","05","02","feedback","test","null","","","na","","18","",""
"2206.800000011921","91538","HierDyepwlbdcq","sub17","05","02","rl","test","83","img/p_c_diag.png","2","83","pattern,shape,color","19","1",""
"null","92542","HierDyepwlbdcq","sub17","05","02","feedback","test","null","","","na","","19","",""
"890.3999999761581","93434","HierDyepwlbdcq","sub17","05","02","rl","test","65","img/b_c_diag.png","1","65","pattern,shape,color","20","1",""
"null","94441","HierDyepwlbdcq","sub17","05","02","feedback","test","null","","","na","","20","",""
"995.6999999880791","95438","HierDyepwlbdcq","sub17","05","02","rl","test","68","img/b_d_diag.png","3","68","pattern,shape,color","21","1",""
"null","96447","HierDyepwlbdcq","sub17","05","02","feedback","test","null","","","na","","21","",""
"1053.0999999642372","97502","HierDyepwlbdcq","sub17","05","02","rl","test","65","img/b_c_diag.png","1","65","pattern,shape,color","22","1",""
"null","98513","HierDyepwlbdcq","sub17","05","02","feedback","test","null","","","na","","22","",""
"1551.199999988079","100066","HierDyepwlbdcq","sub17","05","02","rl","test","72","img/b_c_dots.png","5","72","pattern,shape,color","23","1",""
"null","101072","HierDyepwlbdcq","sub17","05","02","feedback","test","null","","","na","","23","",""
"1402.6000000238419","102476","HierDyepwlbdcq","sub17","05","02","rl","test","68","img/b_d_diag.png","3","68","pattern,shape,color","24","1",""
"null","103481","HierDyepwlbdcq","sub17","05","02","feedback","test","null","","","na","","24","",""
"1618.3999999761581","105101","HierDyepwlbdcq","sub17","05","02","rl","test","75","img/b_d_dots.png","7","75","pattern,shape,color","25","1",""
"null","106113","HierDyepwlbdcq","sub17","05","02","feedback","test","null","","","na","","25","",""
"910.8999999761581","107025","HierDyepwlbdcq","sub17","05","02","rl","test","68","img/b_d_dots.png","7","75","pattern,shape,color","26","0",""
"null","108035","HierDyepwlbdcq","sub17","05","02","feedback","test","null","","","na","","26","",""
"925.5","108962","HierDyepwlbdcq","sub17","05","02","rl","test","72","img/b_c_dots.png","5","72","pattern,shape,color","27","1",""
"null","109967","HierDyepwlbdcq","sub17","05","02","feedback","test","null","","","na","","27","",""
"1368.199999988079","111337","HierDyepwlbdcq","sub17","05","02","rl","test","74","img/p_c_dots.png","6","74","pattern,shape,color","28","1",""
"null","112346","HierDyepwlbdcq","sub17","05","02","feedback","test","null","","","na","","28","",""
"672.8999999761581","113020","HierDyepwlbdcq","sub17","05","02","rl","test","74","img/p_c_dots.png","6","74","pattern,shape,color","29","1",""
"null","114024","HierDyepwlbdcq","sub17","05","02","feedback","test","null","","","na","","29","",""
"1502.800000011921","115529","HierDyepwlbdcq","sub17","05","02","rl","test","70","img/p_d_diag.png","4","70","pattern,shape,color","30","1",""
"null","116539","HierDyepwlbdcq","sub17","05","02","feedback","test","null","","","na","","30","",""
"661.6999999880791","117202","HierDyepwlbdcq","sub17","05","02","rl","test","76","img/p_d_dots.png","8","76","pattern,shape,color","31","1",""
"null","118210","HierDyepwlbdcq","sub17","05","02","feedback","test","null","","","na","","31","",""
"568.5999999642372","118780","HierDyepwlbdcq","sub17","05","02","rl","test","70","img/p_d_diag.png","4","70","pattern,shape,color","32","1",""
"null","119787","HierDyepwlbdcq","sub17","05","02","feedback","test","null","","","na","","32","",""
"1678.3999999761581","121467","HierDyepwlbdcq","sub17","05","02","rl","test","83","img/p_c_diag.png","2","83","pattern,shape,color","33","1",""
"null","122471","HierDyepwlbdcq","sub17","05","02","feedback","test","null","","","na","","33","",""
"1154.5","123627","HierDyepwlbdcq","sub17","05","02","rl","test","74","img/p_c_dots.png","6","74","pattern,shape,color","34","1",""
"null","124633","HierDyepwlbdcq","sub17","05","02","feedback","test","null","","","na","","34","",""
"785","125420","HierDyepwlbdcq","sub17","05","02","rl","test","75","img/b_d_dots.png","7","75","pattern,shape,color","35","1",""
"null","126426","HierDyepwlbdcq","sub17","05","02","feedback","test","null","","","na","","35","",""
"782","127209","HierDyepwlbdcq","sub17","05","02","rl","test","83","img/p_c_diag.png","2","83","pattern,shape,color","36","1",""
"null","128214","HierDyepwlbdcq","sub17","05","02","feedback","test","null","","","na","","36","",""
"864.7999999523163","129080","HierDyepwlbdcq","sub17","05","02","rl","test","65","img/b_c_diag.png","1","65","pattern,shape,color","37","1",""
"null","130088","HierDyepwlbdcq","sub17","05","02","feedback","test","null","","","na","","37","",""
"910","130999","HierDyepwlbdcq","sub17","05","02","rl","test","72","img/b_c_dots.png","5","72","pattern,shape,color","38","1",""
"null","132006","HierDyepwlbdcq","sub17","05","02","feedback","test","null","","","na","","38","",""
"974.5999999642372","132982","HierDyepwlbdcq","sub17","05","02","rl","test","68","img/b_d_diag.png","3","68","pattern,shape,color","39","1",""
"null","133995","HierDyepwlbdcq","sub17","05","02","feedback","test","null","","","na","","39","",""
"1144.7999999523163","135141","HierDyepwlbdcq","sub17","05","02","rl","test","70","img/p_d_diag.png","4","70","pattern,shape,color","40","1",""
"null","136143","HierDyepwlbdcq","sub17","05","02","feedback","test","null","","","na","","40","",""
"636.7999999523163","136781","HierDyepwlbdcq","sub17","05","02","rl","test","76","img/p_d_dots.png","8","76","pattern,shape,color","41","1",""
"null","137790","HierDyepwlbdcq","sub17","05","02","feedback","test","null","","","na","","41","",""
"1122.300000011921","138914","HierDyepwlbdcq","sub17","05","02","rl","test","75","img/b_d_dots.png","7","75","pattern,shape,color","42","1",""
"null","139920","HierDyepwlbdcq","sub17","05","02","feedback","test","null","","","na","","42","",""
"1002.5999999642372","140924","HierDyepwlbdcq","sub17","05","02","rl","test","83","img/b_c_diag.png","1","65","pattern,shape,color","43","0",""
"null","141930","HierDyepwlbdcq","sub17","05","02","feedback","test","null","","","na","","43","",""
"816.3000000119209","142748","HierDyepwlbdcq","sub17","05","02","rl","test","70","img/p_d_diag.png","4","70","pattern,shape,color","44","1",""
"null","143753","HierDyepwlbdcq","sub17","05","02","feedback","test","null","","","na","","44","",""
"1115.300000011921","144870","HierDyepwlbdcq","sub17","05","02","rl","test","83","img/p_c_diag.png","2","83","pattern,shape,color","45","1",""
"null","145881","HierDyepwlbdcq","sub17","05","02","feedback","test","null","","","na","","45","",""
"869.6999999880791","146752","HierDyepwlbdcq","sub17","05","02","rl","test","68","img/b_d_diag.png","3","68","pattern,shape,color","46","1",""
"null","147758","HierDyepwlbdcq","sub17","05","02","feedback","test","null","","","na","","46","",""
"1076.3999999761581","148836","HierDyepwlbdcq","sub17","05","02","rl","test","76","img/p_d_dots.png","8","76","pattern,shape,color","47","1",""
"null","149843","HierDyepwlbdcq","sub17","05","02","feedback","test","null","","","na","","47","",""
"1148.300000011921","150992","HierDyepwlbdcq","sub17","05","02","rl","test","72","img/b_c_dots.png","5","72","pattern,shape,color","48","1",""
"null","152002","HierDyepwlbdcq","sub17","05","02","feedback","test","null","","","na","","48","",""
"583.1000000238419","152586","HierDyepwlbdcq","sub17","05","02","rl","test","74","img/p_c_dots.png","6","74","pattern,shape,color","49","1",""
"null","153594","HierDyepwlbdcq","sub17","05","02","feedback","test","null","","","na","","49","",""
"1698.3999999761581","155293","HierDyepwlbdcq","sub17","05","02","rl","test","76","img/p_d_dots.png","8","76","pattern,shape,color","50","1",""
"null","156302","HierDyepwlbdcq","sub17","05","02","feedback","test","null","","","na","","50","",""
"1102.699999988079","157406","HierDyepwlbdcq","sub17","05","02","rl","test","65","img/b_c_diag.png","1","65","pattern,shape,color","51","1",""
"null","158414","HierDyepwlbdcq","sub17","05","02","feedback","test","null","","","na","","51","",""
"873.5","159289","HierDyepwlbdcq","sub17","05","02","rl","test","72","img/b_c_dots.png","5","72","pattern,shape,color","52","1",""
"null","160296","HierDyepwlbdcq","sub17","05","02","feedback","test","null","","","na","","52","",""
"1037.9000000357628","161336","HierDyepwlbdcq","sub17","05","02","rl","test","75","img/b_d_dots.png","7","75","pattern,shape,color","53","1",""
"null","162345","HierDyepwlbdcq","sub17","05","02","feedback","test","null","","","na","","53","",""
"1352.8999999761581","163699","HierDyepwlbdcq","sub17","05","02","rl","test","74","img/p_c_dots.png","6","74","pattern,shape,color","54","1",""
"null","164706","HierDyepwlbdcq","sub17","05","02","feedback","test","null","","","na","","54","",""
"1119.3999999761581","165826","HierDyepwlbdcq","sub17","05","02","rl","test","75","img/b_d_dots.png","7","75","pattern,shape,color","55","1",""
"null","166830","HierDyepwlbdcq","sub17","05","02","feedback","test","null","","","na","","55","",""
"1205.3999999761581","168037","HierDyepwlbdcq","sub17","05","02","rl","test","72","img/b_c_dots.png","5","72","pattern,shape,color","56","1",""
"null","169047","HierDyepwlbdcq","sub17","05","02","feedback","test","null","","","na","","56","",""
"895.8000000119209","169944","HierDyepwlbdcq","sub17","05","02","rl","test","83","img/p_c_diag.png","2","83","pattern,shape,color","57","1",""
"null","170950","HierDyepwlbdcq","sub17","05","02","feedback","test","null","","","na","","57","",""
"557.8000000119209","171509","HierDyepwlbdcq","sub17","05","02","rl","test","83","img/p_c_diag.png","2","83","pattern,shape,color","58","1",""
"null","172522","HierDyepwlbdcq","sub17","05","02","feedback","test","null","","","na","","58","",""
"632.8999999761581","173157","HierDyepwlbdcq","sub17","05","02","rl","test","70","img/p_d_diag.png","4","70","pattern,shape,color","59","1",""
"null","174167","HierDyepwlbdcq","sub17","05","02","feedback","test","null","","","na","","59","",""
"654.8999999761581","174823","HierDyepwlbdcq","sub17","05","02","rl","test","68","img/b_d_diag.png","3","68","pattern,shape,color","60","1",""
"null","175831","HierDyepwlbdcq","sub17","05","02","feedback","test","null","","","na","","60","",""
"1154.1000000238419","176986","HierDyepwlbdcq","sub17","05","02","rl","test","75","img/p_d_dots.png","8","76","pattern,shape,color","61","0",""
"null","177992","HierDyepwlbdcq","sub17","05","02","feedback","test","null","","","na","","61","",""
"964.6000000238419","178958","HierDyepwlbdcq","sub17","05","02","rl","test","74","img/p_c_dots.png","6","74","pattern,shape,color","62","1",""
"null","179968","HierDyepwlbdcq","sub17","05","02","feedback","test","null","","","na","","62","",""
"1246.8999999761581","181217","HierDyepwlbdcq","sub17","05","02","rl","test","68","img/b_d_diag.png","3","68","pattern,shape,color","63","1",""
"null","182223","HierDyepwlbdcq","sub17","05","02","feedback","test","null","","","na","","63","",""
"940.3999999761581","183165","HierDyepwlbdcq","sub17","05","02","rl","test","65","img/b_c_diag.png","1","65","pattern,shape,color","64","1",""
"null","184177","HierDyepwlbdcq","sub17","05","02","feedback","test","null","","","na","","64","",""
"1015.1999999880791","185193","HierDyepwlbdcq","sub17","05","02","rl","test","83","img/p_c_diag.png","2","83","pattern,shape,color","65","1",""
"null","186200","HierDyepwlbdcq","sub17","05","02","feedback","test","null","","","na","","65","",""
"905","187106","HierDyepwlbdcq","sub17","05","02","rl","test","72","img/b_c_dots.png","5","72","pattern,shape,color","66","1",""
"null","188113","HierDyepwlbdcq","sub17","05","02","feedback","test","null","","","na","","66","",""
"592.2999999523163","188706","HierDyepwlbdcq","sub17","05","02","rl","test","74","img/p_c_dots.png","6","74","pattern,shape,color","67","1",""
"null","189713","HierDyepwlbdcq","sub17","05","02","feedback","test","null","","","na","","67","",""
"787.5","190502","HierDyepwlbdcq","sub17","05","02","rl","test","70","img/p_d_diag.png","4","70","pattern,shape,color","68","1",""
"null","191513","HierDyepwlbdcq","sub17","05","02","feedback","test","null","","","na","","68","",""
"620.9000000357628","192135","HierDyepwlbdcq","sub17","05","02","rl","test","75","img/b_d_dots.png","7","75","pattern,shape,color","69","1",""
"null","193143","HierDyepwlbdcq","sub17","05","02","feedback","test","null","","","na","","69","",""
"715.5","193860","HierDyepwlbdcq","sub17","05","02","rl","test","83","img/b_c_diag.png","1","65","pattern,shape,color","70","0",""
"null","194865","HierDyepwlbdcq","sub17","05","02","feedback","test","null","","","na","","70","",""
"704.5","195571","HierDyepwlbdcq","sub17","05","02","rl","test","75","img/b_d_dots.png","7","75","pattern,shape,color","71","1",""
"null","196574","HierDyepwlbdcq","sub17","05","02","feedback","test","null","","","na","","71","",""
"981.6000000238419","197557","HierDyepwlbdcq","sub17","05","02","rl","test","68","img/b_d_diag.png","3","68","pattern,shape,color","72","1",""
"null","198570","HierDyepwlbdcq","sub17","05","02","feedback","test","null","","","na","","72","",""
"525.9000000357628","199097","HierDyepwlbdcq","sub17","05","02","rl","test","76","img/p_d_dots.png","8","76","pattern,shape,color","73","1",""
"null","200105","HierDyepwlbdcq","sub17","05","02","feedback","test","null","","","na","","73","",""
"501.80000001192093","200609","HierDyepwlbdcq","sub17","05","02","rl","test","76","img/p_d_dots.png","8","76","pattern,shape,color","74","1",""
"null","201614","HierDyepwlbdcq","sub17","05","02","feedback","test","null","","","na","","74","",""
"664.3000000119209","202280","HierDyepwlbdcq","sub17","05","02","rl","test","70","img/p_d_diag.png","4","70","pattern,shape,color","75","1",""
"null","203289","HierDyepwlbdcq","sub17","05","02","feedback","test","null","","","na","","75","",""
"1129.699999988079","204420","HierDyepwlbdcq","sub17","05","02","rl","test","72","img/b_c_dots.png","5","72","pattern,shape,color","76","1",""
"null","205426","HierDyepwlbdcq","sub17","05","02","feedback","test","null","","","na","","76","",""
"1509.6000000238419","206937","HierDyepwlbdcq","sub17","05","02","rl","test","83","img/p_c_diag.png","2","83","pattern,shape,color","77","1",""
"null","207943","HierDyepwlbdcq","sub17","05","02","feedback","test","null","","","na","","77","",""
"740.5","208685","HierDyepwlbdcq","sub17","05","02","rl","test","68","img/p_c_dots.png","6","74","pattern,shape,color","78","0",""
"null","209698","HierDyepwlbdcq","sub17","05","02","feedback","test","null","","","na","","78","",""
"828.8999999761581","210528","HierDyepwlbdcq","sub17","05","02","rl","test","83","img/p_c_diag.png","2","83","pattern,shape,color","79","1",""
"null","211536","HierDyepwlbdcq","sub17","05","02","feedback","test","null","","","na","","79","",""
"796.5999999642372","212334","HierDyepwlbdcq","sub17","05","02","rl","test","68","img/b_d_diag.png","3","68","pattern,shape,color","80","1",""
"null","213345","HierDyepwlbdcq","sub17","05","02","feedback","test","null","","","na","","80","",""
"1035.5","214382","HierDyepwlbdcq","sub17","05","02","rl","test","74","img/p_c_dots.png","6","74","pattern,shape,color","81","1",""
"null","215395","HierDyepwlbdcq","sub17","05","02","feedback","test","null","","","na","","81","",""
"1186.8999999761581","216583","HierDyepwlbdcq","sub17","05","02","rl","test","65","img/b_c_diag.png","1","65","pattern,shape,color","82","1",""
"null","217591","HierDyepwlbdcq","sub17","05","02","feedback","test","null","","","na","","82","",""
"690.6999999880791","218283","HierDyepwlbdcq","sub17","05","02","rl","test","65","img/b_c_diag.png","1","65","pattern,shape,color","83","1",""
"null","219289","HierDyepwlbdcq","sub17","05","02","feedback","test","null","","","na","","83","",""
"802.3999999761581","220093","HierDyepwlbdcq","sub17","05","02","rl","test","75","img/b_d_dots.png","7","75","pattern,shape,color","84","1",""
"null","221105","HierDyepwlbdcq","sub17","05","02","feedback","test","null","","","na","","84","",""
"959.4000000357628","222066","HierDyepwlbdcq","sub17","05","02","rl","test","68","img/b_d_diag.png","3","68","pattern,shape,color","85","1",""
"null","223071","HierDyepwlbdcq","sub17","05","02","feedback","test","null","","","na","","85","",""
"1454.2999999523163","224527","HierDyepwlbdcq","sub17","05","02","rl","test","72","img/b_c_diag.png","1","65","pattern,shape,color","86","0",""
"null","225537","HierDyepwlbdcq","sub17","05","02","feedback","test","null","","","na","","86","",""
"720.9000000357628","226259","HierDyepwlbdcq","sub17","05","02","rl","test","76","img/p_d_dots.png","8","76","pattern,shape,color","87","1",""
"null","227262","HierDyepwlbdcq","sub17","05","02","feedback","test","null","","","na","","87","",""
"641","227904","HierDyepwlbdcq","sub17","05","02","rl","test","70","img/p_d_diag.png","4","70","pattern,shape,color","88","1",""
"null","228912","HierDyepwlbdcq","sub17","05","02","feedback","test","null","","","na","","88","",""
"570.7000000476837","229484","HierDyepwlbdcq","sub17","05","02","rl","test","68","img/b_d_diag.png","3","68","pattern,shape,color","89","1",""
"null","230489","HierDyepwlbdcq","sub17","05","02","feedback","test","null","","","na","","89","",""
"977.1000000238419","231468","HierDyepwlbdcq","sub17","05","02","rl","test","72","img/b_c_dots.png","5","72","pattern,shape,color","90","1",""
"null","232472","HierDyepwlbdcq","sub17","05","02","feedback","test","null","","","na","","90","",""
"803.3000000119209","233277","HierDyepwlbdcq","sub17","05","02","rl","test","76","img/p_d_dots.png","8","76","pattern,shape,color","91","1",""
"null","234290","HierDyepwlbdcq","sub17","05","02","feedback","test","null","","","na","","91","",""
"1799.699999988079","236091","HierDyepwlbdcq","sub17","05","02","rl","test","75","img/b_d_dots.png","7","75","pattern,shape,color","92","1",""
"null","237095","HierDyepwlbdcq","sub17","05","02","feedback","test","null","","","na","","92","",""
"1565.4000000357628","238662","HierDyepwlbdcq","sub17","05","02","rl","test","83","img/p_c_diag.png","2","83","pattern,shape,color","93","1",""
"null","239672","HierDyepwlbdcq","sub17","05","02","feedback","test","null","","","na","","93","",""
"859.8999999761581","240533","HierDyepwlbdcq","sub17","05","02","rl","test","70","img/p_d_diag.png","4","70","pattern,shape,color","94","1",""
"null","241542","HierDyepwlbdcq","sub17","05","02","feedback","test","null","","","na","","94","",""
"null","244047","HierDyepwlbdcq","sub17","05","02","rl","test","null","img/b_c_dots.png","5","72","pattern,shape,color","95","0",""
"null","245055","HierDyepwlbdcq","sub17","05","02","feedback","test","null","","","na","","95","",""
"654.3000000119209","245710","HierDyepwlbdcq","sub17","05","02","rl","test","74","img/p_c_dots.png","6","74","pattern,shape,color","96","1",""
"null","246718","HierDyepwlbdcq","sub17","05","02","feedback","test","null","","","na","","96","",""
"388.19999998807907","247108","HierDyepwlbdcq","sub17","05","02","rl","test","72","img/b_c_dots.png","5","72","pattern,shape,color","97","1",""
"null","248112","HierDyepwlbdcq","sub17","05","02","feedback","test","null","","","na","","97","",""
"746","248860","HierDyepwlbdcq","sub17","05","02","rl","test","75","img/b_d_dots.png","7","75","pattern,shape,color","98","1",""
"null","249865","HierDyepwlbdcq","sub17","05","02","feedback","test","null","","","na","","98","",""
"1621.5","251488","HierDyepwlbdcq","sub17","05","02","rl","test","68","img/b_d_diag.png","3","68","pattern,shape,color","99","1",""
"null","252495","HierDyepwlbdcq","sub17","05","02","feedback","test","null","","","na","","99","",""
"918.3000000119209","253414","HierDyepwlbdcq","sub17","05","02","rl","test","83","img/p_c_diag.png","2","83","pattern,shape,color","100","1",""
"null","254422","HierDyepwlbdcq","sub17","05","02","feedback","test","null","","","na","","100","",""
"1156.699999988079","255580","HierDyepwlbdcq","sub17","05","02","rl","test","65","img/b_c_diag.png","1","65","pattern,shape,color","101","1",""
"null","256590","HierDyepwlbdcq","sub17","05","02","feedback","test","null","","","na","","101","",""
"791.8000000119209","257383","HierDyepwlbdcq","sub17","05","02","rl","test","76","img/p_d_dots.png","8","76","pattern,shape,color","102","1",""
"null","258389","HierDyepwlbdcq","sub17","05","02","feedback","test","null","","","na","","102","",""
"803.3000000119209","259193","HierDyepwlbdcq","sub17","05","02","rl","test","76","img/p_d_diag.png","4","70","pattern,shape,color","103","0",""
"null","260197","HierDyepwlbdcq","sub17","05","02","feedback","test","null","","","na","","103","",""
"482.5999999642372","260681","HierDyepwlbdcq","sub17","05","02","rl","test","70","img/p_d_diag.png","4","70","pattern,shape,color","104","1",""
"null","261687","HierDyepwlbdcq","sub17","05","02","feedback","test","null","","","na","","104","",""
"953.5","262642","HierDyepwlbdcq","sub17","05","02","rl","test","72","img/p_c_dots.png","6","74","pattern,shape,color","105","0",""
"null","263647","HierDyepwlbdcq","sub17","05","02","feedback","test","null","","","na","","105","",""
"1025","264673","HierDyepwlbdcq","sub17","05","02","rl","test","83","img/p_c_diag.png","2","83","pattern,shape,color","106","1",""
"null","265679","HierDyepwlbdcq","sub17","05","02","feedback","test","null","","","na","","106","",""
"1258","266938","HierDyepwlbdcq","sub17","05","02","rl","test","76","img/p_d_dots.png","8","76","pattern,shape,color","107","1",""
"null","267942","HierDyepwlbdcq","sub17","05","02","feedback","test","null","","","na","","107","",""
"924.1999999880791","268868","HierDyepwlbdcq","sub17","05","02","rl","test","65","img/b_c_diag.png","1","65","pattern,shape,color","108","1",""
"null","269874","HierDyepwlbdcq","sub17","05","02","feedback","test","null","","","na","","108","",""
"965.8000000119209","270841","HierDyepwlbdcq","sub17","05","02","rl","test","75","img/b_d_dots.png","7","75","pattern,shape,color","109","1",""
"null","271846","HierDyepwlbdcq","sub17","05","02","feedback","test","null","","","na","","109","",""
"1052.699999988079","272900","HierDyepwlbdcq","sub17","05","02","rl","test","72","img/b_c_dots.png","5","72","pattern,shape,color","110","1",""
"null","273912","HierDyepwlbdcq","sub17","05","02","feedback","test","null","","","na","","110","",""
"1417.699999988079","275331","HierDyepwlbdcq","sub17","05","02","rl","test","68","img/b_d_diag.png","3","68","pattern,shape,color","111","1",""
"null","276337","HierDyepwlbdcq","sub17","05","02","feedback","test","null","","","na","","111","",""
"1207.6000000238419","277547","HierDyepwlbdcq","sub17","05","02","rl","test","74","img/p_c_dots.png","6","74","pattern,shape,color","112","1",""
"null","278553","HierDyepwlbdcq","sub17","05","02","feedback","test","null","","","na","","112","",""
"923.8999999761581","279479","HierDyepwlbdcq","sub17","05","02","rl","test","68","img/b_d_diag.png","3","68","pattern,shape,color","113","1",""
"null","280490","HierDyepwlbdcq","sub17","05","02","feedback","test","null","","","na","","113","",""
"985.5","281477","HierDyepwlbdcq","sub17","05","02","rl","test","72","img/b_c_dots.png","5","72","pattern,shape,color","114","1",""
"null","282488","HierDyepwlbdcq","sub17","05","02","feedback","test","null","","","na","","114","",""
"759.7999999523163","283249","HierDyepwlbdcq","sub17","05","02","rl","test","74","img/p_c_dots.png","6","74","pattern,shape,color","115","1",""
"null","284255","HierDyepwlbdcq","sub17","05","02","feedback","test","null","","","na","","115","",""
"1102.0999999642372","285358","HierDyepwlbdcq","sub17","05","02","rl","test","65","img/b_c_diag.png","1","65","pattern,shape,color","116","1",""
"null","286367","HierDyepwlbdcq","sub17","05","02","feedback","test","null","","","na","","116","",""
"1003.8000000119209","287372","HierDyepwlbdcq","sub17","05","02","rl","test","70","img/p_d_dots.png","8","76","pattern,shape,color","117","0",""
"null","288382","HierDyepwlbdcq","sub17","05","02","feedback","test","null","","","na","","117","",""
"729","289113","HierDyepwlbdcq","sub17","05","02","rl","test","70","img/p_d_diag.png","4","70","pattern,shape,color","118","1",""
"null","290119","HierDyepwlbdcq","sub17","05","02","feedback","test","null","","","na","","118","",""
"457.69999998807907","290578","HierDyepwlbdcq","sub17","05","02","rl","test","76","img/p_d_diag.png","4","70","pattern,shape,color","119","0",""
"null","291584","HierDyepwlbdcq","sub17","05","02","feedback","test","null","","","na","","119","",""
"1385.6000000238419","292971","HierDyepwlbdcq","sub17","05","02","rl","test","83","img/p_c_diag.png","2","83","pattern,shape,color","120","1",""
"null","293974","HierDyepwlbdcq","sub17","05","02","feedback","test","null","","","na","","120","",""
"718.8000000119209","294695","HierDyepwlbdcq","sub17","05","02","rl","test","75","img/b_d_dots.png","7","75","pattern,shape,color","121","1",""
"null","295704","HierDyepwlbdcq","sub17","05","02","feedback","test","null","","","na","","121","",""
"1422","297127","HierDyepwlbdcq","sub17","05","02","rl","test","83","img/p_c_diag.png","2","83","pattern,shape,color","122","1",""
"null","298134","HierDyepwlbdcq","sub17","05","02","feedback","test","null","","","na","","122","",""
"1475.1000000238419","299611","HierDyepwlbdcq","sub17","05","02","rl","test","76","img/p_d_dots.png","8","76","pattern,shape,color","123","1",""
"null","300615","HierDyepwlbdcq","sub17","05","02","feedback","test","null","","","na","","123","",""
"970.1000000238419","301586","HierDyepwlbdcq","sub17","05","02","rl","test","68","img/b_d_diag.png","3","68","pattern,shape,color","124","1",""
"null","302592","HierDyepwlbdcq","sub17","05","02","feedback","test","null","","","na","","124","",""
"null","305102","HierDyepwlbdcq","sub17","05","02","rl","test","null","img/b_c_diag.png","1","65","pattern,shape,color","125","0",""
"null","306111","HierDyepwlbdcq","sub17","05","02","feedback","test","null","","","na","","125","",""
"1216.0999999642372","307329","HierDyepwlbdcq","sub17","05","02","rl","test","75","img/b_d_dots.png","7","75","pattern,shape,color","126","1",""
"null","308337","HierDyepwlbdcq","sub17","05","02","feedback","test","null","","","na","","126","",""
"1673.5999999642372","310012","HierDyepwlbdcq","sub17","05","02","rl","test","74","img/b_c_dots.png","5","72","pattern,shape,color","127","0",""
"null","311027","HierDyepwlbdcq","sub17","05","02","feedback","test","null","","","na","","127","",""
"538.5","311567","HierDyepwlbdcq","sub17","05","02","rl","test","72","img/b_c_dots.png","5","72","pattern,shape,color","128","1",""
"null","312574","HierDyepwlbdcq","sub17","05","02","feedback","test","null","","","na","","128","",""
"949.8000000119209","313525","HierDyepwlbdcq","sub17","05","02","rl","test","70","img/p_d_diag.png","4","70","pattern,shape,color","129","1",""
"null","314537","HierDyepwlbdcq","sub17","05","02","feedback","test","null","","","na","","129","",""
"923","315461","HierDyepwlbdcq","sub17","05","02","rl","test","74","img/p_c_dots.png","6","74","pattern,shape,color","130","1",""
"null","316473","HierDyepwlbdcq","sub17","05","02","feedback","test","null","","","na","","130","",""
"724.1000000238419","317199","HierDyepwlbdcq","sub17","05","02","rl","test","75","img/p_d_dots.png","8","76","pattern,shape,color","131","0",""
"null","318205","HierDyepwlbdcq","sub17","05","02","feedback","test","null","","","na","","131","",""
"1879.800000011921","320087","HierDyepwlbdcq","sub17","05","02","rl","test","83","img/p_c_diag.png","2","83","pattern,shape,color","132","1",""
"null","321095","HierDyepwlbdcq","sub17","05","02","feedback","test","null","","","na","","132","",""
"895.9000000357628","321992","HierDyepwlbdcq","sub17","05","02","rl","test","74","img/p_c_dots.png","6","74","pattern,shape,color","133","1",""
"null","322998","HierDyepwlbdcq","sub17","05","02","feedback","test","null","","","na","","133","",""
"767.1000000238419","323767","HierDyepwlbdcq","sub17","05","02","rl","test","65","img/b_c_diag.png","1","65","pattern,shape,color","134","1",""
"null","324769","HierDyepwlbdcq","sub17","05","02","feedback","test","null","","","na","","134","",""
"913.7000000476837","325684","HierDyepwlbdcq","sub17","05","02","rl","test","76","img/p_d_dots.png","8","76","pattern,shape,color","135","1",""
"null","326693","HierDyepwlbdcq","sub17","05","02","feedback","test","null","","","na","","135","",""
"896.1000000238419","327591","HierDyepwlbdcq","sub17","05","02","rl","test","68","img/b_d_diag.png","3","68","pattern,shape,color","136","1",""
"null","328597","HierDyepwlbdcq","sub17","05","02","feedback","test","null","","","na","","136","",""
"892","329491","HierDyepwlbdcq","sub17","05","02","rl","test","75","img/b_d_dots.png","7","75","pattern,shape,color","137","1",""
"null","330497","HierDyepwlbdcq","sub17","05","02","feedback","test","null","","","na","","137","",""
"932.8000000119209","331431","HierDyepwlbdcq","sub17","05","02","rl","test","72","img/b_c_diag.png","1","65","pattern,shape,color","138","0",""
"null","332441","HierDyepwlbdcq","sub17","05","02","feedback","test","null","","","na","","138","",""
"1712.6000000238419","334155","HierDyepwlbdcq","sub17","05","02","rl","test","68","img/b_d_diag.png","3","68","pattern,shape,color","139","1",""
"null","335158","HierDyepwlbdcq","sub17","05","02","feedback","test","null","","","na","","139","",""
"657.2000000476837","335817","HierDyepwlbdcq","sub17","05","02","rl","test","83","img/p_c_diag.png","2","83","pattern,shape,color","140","1",""
"null","336825","HierDyepwlbdcq","sub17","05","02","feedback","test","null","","","na","","140","",""
"1459.3999999761581","338286","HierDyepwlbdcq","sub17","05","02","rl","test","72","img/b_c_dots.png","5","72","pattern,shape,color","141","1",""
"null","339296","HierDyepwlbdcq","sub17","05","02","feedback","test","null","","","na","","141","",""
"849.5","340147","HierDyepwlbdcq","sub17","05","02","rl","test","76","img/b_d_dots.png","7","75","pattern,shape,color","142","0",""
"null","341150","HierDyepwlbdcq","sub17","05","02","feedback","test","null","","","na","","142","",""
"948.9000000357628","342100","HierDyepwlbdcq","sub17","05","02","rl","test","70","img/p_d_diag.png","4","70","pattern,shape,color","143","1",""
"null","343102","HierDyepwlbdcq","sub17","05","02","feedback","test","null","","","na","","143","",""
"1341.0999999642372","344445","HierDyepwlbdcq","sub17","05","02","rl","test","74","img/p_c_dots.png","6","74","pattern,shape,color","144","1",""
"null","345455","HierDyepwlbdcq","sub17","05","02","feedback","test","null","","","na","","144","",""
"1466","346923","HierDyepwlbdcq","sub17","05","02","rl","test","74","img/p_c_dots.png","6","74","pattern,shape,color","145","1",""
"null","347930","HierDyepwlbdcq","sub17","05","02","feedback","test","null","","","na","","145","",""
"846.3000000119209","348778","HierDyepwlbdcq","sub17","05","02","rl","test","83","img/p_c_diag.png","2","83","pattern,shape,color","146","1",""
"null","349785","HierDyepwlbdcq","sub17","05","02","feedback","test","null","","","na","","146","",""
"710.4000000357628","350497","HierDyepwlbdcq","sub17","05","02","rl","test","74","img/p_c_dots.png","6","74","pattern,shape,color","147","1",""
"null","351501","HierDyepwlbdcq","sub17","05","02","feedback","test","null","","","na","","147","",""
"1109.3999999761581","352612","HierDyepwlbdcq","sub17","05","02","rl","test","72","img/b_c_dots.png","5","72","pattern,shape,color","148","1",""
"null","353621","HierDyepwlbdcq","sub17","05","02","feedback","test","null","","","na","","148","",""
"1138.0999999642372","354761","HierDyepwlbdcq","sub17","05","02","rl","test","70","img/p_d_diag.png","4","70","pattern,shape,color","149","1",""
"null","355767","HierDyepwlbdcq","sub17","05","02","feedback","test","null","","","na","","149","",""
"726.0999999642372","356495","HierDyepwlbdcq","sub17","05","02","rl","test","76","img/p_d_dots.png","8","76","pattern,shape,color","150","1",""
"null","357505","HierDyepwlbdcq","sub17","05","02","feedback","test","null","","","na","","150","",""
"890.8000000119209","358397","HierDyepwlbdcq","sub17","05","02","rl","test","75","img/b_d_dots.png","7","75","pattern,shape,color","151","1",""
"null","359405","HierDyepwlbdcq","sub17","05","02","feedback","test","null","","","na","","151","",""
"1027.800000011921","360435","HierDyepwlbdcq","sub17","05","02","rl","test","68","img/b_d_diag.png","3","68","pattern,shape,color","152","1",""
"null","361440","HierDyepwlbdcq","sub17","05","02","feedback","test","null","","","na","","152","",""
"1570.699999988079","363012","HierDyepwlbdcq","sub17","05","02","rl","test","83","img/b_c_diag.png","1","65","pattern,shape,color","153","0",""
"null","364023","HierDyepwlbdcq","sub17","05","02","feedback","test","null","","","na","","153","",""
"1818.300000011921","365843","HierDyepwlbdcq","sub17","05","02","rl","test","75","img/p_d_diag.png","4","70","pattern,shape,color","154","0",""
"null","366849","HierDyepwlbdcq","sub17","05","02","feedback","test","null","","","na","","154","",""
"1487.300000011921","368337","HierDyepwlbdcq","sub17","05","02","rl","test","75","img/b_d_dots.png","7","75","pattern,shape,color","155","1",""
"null","369345","HierDyepwlbdcq","sub17","05","02","feedback","test","null","","","na","","155","",""
"1190.5","370537","HierDyepwlbdcq","sub17","05","02","rl","test","83","img/p_c_diag.png","2","83","pattern,shape,color","156","1",""
"null","371543","HierDyepwlbdcq","sub17","05","02","feedback","test","null","","","na","","156","",""
"1523.5","373068","HierDyepwlbdcq","sub17","05","02","rl","test","76","img/p_d_dots.png","8","76","pattern,shape,color","157","1",""
"null","374080","HierDyepwlbdcq","sub17","05","02","feedback","test","null","","","na","","157","",""
"1747","375828","HierDyepwlbdcq","sub17","05","02","rl","test","83","img/p_c_diag.png","2","83","pattern,shape,color","158","1",""
"null","376838","HierDyepwlbdcq","sub17","05","02","feedback","test","null","","","na","","158","",""
"716.2999999523163","377555","HierDyepwlbdcq","sub17","05","02","rl","test","74","img/p_c_dots.png","6","74","pattern,shape,color","159","1",""
"null","378560","HierDyepwlbdcq","sub17","05","02","feedback","test","null","","","na","","159","",""
"788.6999999880791","379350","HierDyepwlbdcq","sub17","05","02","rl","test","75","img/b_d_diag.png","3","68","pattern,shape,color","160","0",""
"null","380358","HierDyepwlbdcq","sub17","05","02","feedback","test","null","","","na","","160","",""
"1957.3999999761581","382316","HierDyepwlbdcq","sub17","05","02","rl","test","72","img/b_c_dots.png","5","72","pattern,shape,color","161","1",""
"null","383326","HierDyepwlbdcq","sub17","05","02","feedback","test","null","","","na","","161","",""
"932.4000000357628","384260","HierDyepwlbdcq","sub17","05","02","rl","test","72","img/b_c_dots.png","5","72","pattern,shape,color","162","1",""
"null","385270","HierDyepwlbdcq","sub17","05","02","feedback","test","null","","","na","","162","",""
"724.3000000119209","385996","HierDyepwlbdcq","sub17","05","02","rl","test","65","img/b_c_diag.png","1","65","pattern,shape,color","163","1",""
"null","387008","HierDyepwlbdcq","sub17","05","02","feedback","test","null","","","na","","163","",""
"1418.1000000238419","388428","HierDyepwlbdcq","sub17","05","02","rl","test","65","img/b_c_diag.png","1","65","pattern,shape,color","164","1",""
"null","389438","HierDyepwlbdcq","sub17","05","02","feedback","test","null","","","na","","164","",""
"1553","390993","HierDyepwlbdcq","sub17","05","02","rl","test","70","img/p_d_diag.png","4","70","pattern,shape,color","165","1",""
"null","391998","HierDyepwlbdcq","sub17","05","02","feedback","test","null","","","na","","165","",""
"892.2999999523163","392892","HierDyepwlbdcq","sub17","05","02","rl","test","76","img/p_d_dots.png","8","76","pattern,shape,color","166","1",""
"null","393906","HierDyepwlbdcq","sub17","05","02","feedback","test","null","","","na","","166","",""
"853.3000000119209","394761","HierDyepwlbdcq","sub17","05","02","rl","test","75","img/b_d_dots.png","7","75","pattern,shape,color","167","1",""
"null","395770","HierDyepwlbdcq","sub17","05","02","feedback","test","null","","","na","","167","",""
"677.8999999761581","396449","HierDyepwlbdcq","sub17","05","02","rl","test","76","img/b_d_diag.png","3","68","pattern,shape,color","168","0",""
"null","397455","HierDyepwlbdcq","sub17","05","02","feedback","test","null","","","na","","168","",""
"1480.7999999523163","398938","HierDyepwlbdcq","sub17","05","02","rl","test","76","img/p_d_dots.png","8","76","pattern,shape,color","169","1",""
"null","399943","HierDyepwlbdcq","sub17","05","02","feedback","test","null","","","na","","169","",""
"1487.800000011921","401432","HierDyepwlbdcq","sub17","05","02","rl","test","68","img/b_d_diag.png","3","68","pattern,shape,color","170","1",""
"null","402441","HierDyepwlbdcq","sub17","05","02","feedback","test","null","","","na","","170","",""
"698.6999999880791","403141","HierDyepwlbdcq","sub17","05","02","rl","test","75","img/b_d_dots.png","7","75","pattern,shape,color","171","1",""
"null","404151","HierDyepwlbdcq","sub17","05","02","feedback","test","null","","","na","","171","",""
"1026.0999999642372","405179","HierDyepwlbdcq","sub17","05","02","rl","test","72","img/p_c_diag.png","2","83","pattern,shape,color","172","0",""
"null","406184","HierDyepwlbdcq","sub17","05","02","feedback","test","null","","","na","","172","",""
"1556.3999999761581","407741","HierDyepwlbdcq","sub17","05","02","rl","test","83","img/p_c_dots.png","6","74","pattern,shape,color","173","0",""
"null","408754","HierDyepwlbdcq","sub17","05","02","feedback","test","null","","","na","","173","",""
"985.6999999880791","409741","HierDyepwlbdcq","sub17","05","02","rl","test","75","img/b_d_dots.png","7","75","pattern,shape,color","174","1",""
"null","410751","HierDyepwlbdcq","sub17","05","02","feedback","test","null","","","na","","174","",""
"715.3999999761581","411468","HierDyepwlbdcq","sub17","05","02","rl","test","76","img/p_d_dots.png","8","76","pattern,shape,color","175","1",""
"null","412482","HierDyepwlbdcq","sub17","05","02","feedback","test","null","","","na","","175","",""
"1107.7000000476837","413591","HierDyepwlbdcq","sub17","05","02","rl","test","70","img/p_d_diag.png","4","70","pattern,shape,color","176","1",""
"null","414599","HierDyepwlbdcq","sub17","05","02","feedback","test","null","","","na","","176","",""
"1174.5","415774","HierDyepwlbdcq","sub17","05","02","rl","test","72","img/b_c_dots.png","5","72","pattern,shape,color","177","1",""
"null","416782","HierDyepwlbdcq","sub17","05","02","feedback","test","null","","","na","","177","",""
"1003.5","417786","HierDyepwlbdcq","sub17","05","02","rl","test","74","img/p_c_dots.png","6","74","pattern,shape,color","178","1",""
"null","418789","HierDyepwlbdcq","sub17","05","02","feedback","test","null","","","na","","178","",""
"920.8000000119209","419711","HierDyepwlbdcq","sub17","05","02","rl","test","65","img/b_c_diag.png","1","65","pattern,shape,color","179","1",""
"null","420721","HierDyepwlbdcq","sub17","05","02","feedback","test","null","","","na","","179","",""
"595.1999999880791","421317","HierDyepwlbdcq","sub17","05","02","rl","test","83","img/p_c_diag.png","2","83","pattern,shape,color","180","1",""
"null","422328","HierDyepwlbdcq","sub17","05","02","feedback","test","null","","","na","","180","",""
"702.5999999642372","423032","HierDyepwlbdcq","sub17","05","02","rl","test","65","img/b_c_diag.png","1","65","pattern,shape,color","181","1",""
"null","424038","HierDyepwlbdcq","sub17","05","02","feedback","test","null","","","na","","181","",""
"965.1000000238419","425005","HierDyepwlbdcq","sub17","05","02","rl","test","70","img/p_d_diag.png","4","70","pattern,shape,color","182","1",""
"null","426018","HierDyepwlbdcq","sub17","05","02","feedback","test","null","","","na","","182","",""
"716.3999999761581","426736","HierDyepwlbdcq","sub17","05","02","rl","test","68","img/b_d_diag.png","3","68","pattern,shape,color","183","1",""
"null","427743","HierDyepwlbdcq","sub17","05","02","feedback","test","null","","","na","","183","",""
"1149.0999999642372","428894","HierDyepwlbdcq","sub17","05","02","rl","test","72","img/b_c_dots.png","5","72","pattern,shape,color","184","1",""
"null","429904","HierDyepwlbdcq","sub17","05","02","feedback","test","null","","","na","","184","",""
"755.2999999523163","430660","HierDyepwlbdcq","sub17","05","02","rl","test","75","img/p_d_diag.png","4","70","pattern,shape,color","185","0",""
"null","431669","HierDyepwlbdcq","sub17","05","02","feedback","test","null","","","na","","185","",""
"1270.6000000238419","432941","HierDyepwlbdcq","sub17","05","02","rl","test","65","img/b_c_diag.png","1","65","pattern,shape,color","186","1",""
"null","433952","HierDyepwlbdcq","sub17","05","02","feedback","test","null","","","na","","186","",""
"985.3999999761581","434939","HierDyepwlbdcq","sub17","05","02","rl","test","68","img/b_d_diag.png","3","68","pattern,shape,color","187","1",""
"null","435949","HierDyepwlbdcq","sub17","05","02","feedback","test","null","","","na","","187","",""
"1011.3999999761581","436962","HierDyepwlbdcq","sub17","05","02","rl","test","75","img/b_d_dots.png","7","75","pattern,shape,color","188","1",""
"null","437968","HierDyepwlbdcq","sub17","05","02","feedback","test","null","","","na","","188","",""
"865.1000000238419","438834","HierDyepwlbdcq","sub17","05","02","rl","test","83","img/p_c_diag.png","2","83","pattern,shape,color","189","1",""
"null","439842","HierDyepwlbdcq","sub17","05","02","feedback","test","null","","","na","","189","",""
"1200.1000000238419","441043","HierDyepwlbdcq","sub17","05","02","rl","test","76","img/p_d_dots.png","8","76","pattern,shape,color","190","1",""
"null","442049","HierDyepwlbdcq","sub17","05","02","feedback","test","null","","","na","","190","",""
"773.6000000238419","442824","HierDyepwlbdcq","sub17","05","02","rl","test","72","img/b_c_dots.png","5","72","pattern,shape,color","191","1",""
"null","443832","HierDyepwlbdcq","sub17","05","02","feedback","test","null","","","na","","191","",""
"1447.1000000238419","445280","HierDyepwlbdcq","sub17","05","02","rl","test","74","img/p_c_dots.png","6","74","pattern,shape,color","192","1",""
"null","446288","HierDyepwlbdcq","sub17","05","02","feedback","test","null","","","na","","192","",""
"490.9000000357628","446780","HierDyepwlbdcq","sub17","05","02","rl","test","74","img/p_c_dots.png","6","74","pattern,shape,color","193","1",""
"null","447792","HierDyepwlbdcq","sub17","05","02","feedback","test","null","","","na","","193","",""
"508.2000000476837","448302","HierDyepwlbdcq","sub17","05","02","rl","test","72","img/b_c_dots.png","5","72","pattern,shape,color","194","1",""
"null","449312","HierDyepwlbdcq","sub17","05","02","feedback","test","null","","","na","","194","",""
"881.6999999880791","450195","HierDyepwlbdcq","sub17","05","02","rl","test","70","img/p_d_diag.png","4","70","pattern,shape,color","195","1",""
"null","451200","HierDyepwlbdcq","sub17","05","02","feedback","test","null","","","na","","195","",""
"709.4000000357628","451911","HierDyepwlbdcq","sub17","05","02","rl","test","76","img/p_d_dots.png","8","76","pattern,shape,color","196","1",""
"null","452918","HierDyepwlbdcq","sub17","05","02","feedback","test","null","","","na","","196","",""
"2456.099999964237","455375","HierDyepwlbdcq","sub17","05","02","rl","test","65","img/b_c_diag.png","1","65","pattern,shape,color","197","1",""
"null","456384","HierDyepwlbdcq","sub17","05","02","feedback","test","null","","","na","","197","",""
"908","457294","HierDyepwlbdcq","sub17","05","02","rl","test","75","img/b_d_dots.png","7","75","pattern,shape,color","198","1",""
"null","458301","HierDyepwlbdcq","sub17","05","02","feedback","test","null","","","na","","198","",""
"969.1000000238419","459272","HierDyepwlbdcq","sub17","05","02","rl","test","68","img/b_d_diag.png","3","68","pattern,shape,color","199","1",""
"null","460278","HierDyepwlbdcq","sub17","05","02","feedback","test","null","","","na","","199","",""
"1431.0999999642372","461711","HierDyepwlbdcq","sub17","05","02","rl","test","74","img/p_c_dots.png","6","74","pattern,shape,color","200","1",""
"null","462720","HierDyepwlbdcq","sub17","05","02","feedback","test","null","","","na","","200","",""
"983.1999999880791","463705","HierDyepwlbdcq","sub17","05","02","rl","test","83","img/p_c_diag.png","2","83","pattern,shape,color","201","1",""
"null","464710","HierDyepwlbdcq","sub17","05","02","feedback","test","null","","","na","","201","",""
"1375.3999999761581","466087","HierDyepwlbdcq","sub17","05","02","rl","test","72","img/b_c_dots.png","5","72","pattern,shape,color","202","1",""
"null","467094","HierDyepwlbdcq","sub17","05","02","feedback","test","null","","","na","","202","",""
"1047.300000011921","468143","HierDyepwlbdcq","sub17","05","02","rl","test","68","img/b_d_diag.png","3","68","pattern,shape,color","203","1",""
"null","469154","HierDyepwlbdcq","sub17","05","02","feedback","test","null","","","na","","203","",""
"905.0999999642372","470060","HierDyepwlbdcq","sub17","05","02","rl","test","70","img/p_d_diag.png","4","70","pattern,shape,color","204","1",""
"null","471070","HierDyepwlbdcq","sub17","05","02","feedback","test","null","","","na","","204","",""
"1419.6000000238419","472491","HierDyepwlbdcq","sub17","05","02","rl","test","83","img/p_c_diag.png","2","83","pattern,shape,color","205","1",""
"null","473497","HierDyepwlbdcq","sub17","05","02","feedback","test","null","","","na","","205","",""
"1598.8999999761581","475098","HierDyepwlbdcq","sub17","05","02","rl","test","75","img/p_d_dots.png","8","76","pattern,shape,color","206","0",""
"null","476104","HierDyepwlbdcq","sub17","05","02","feedback","test","null","","","na","","206","",""
"1543","477648","HierDyepwlbdcq","sub17","05","02","rl","test","76","img/p_d_dots.png","8","76","pattern,shape,color","207","1",""
"null","478655","HierDyepwlbdcq","sub17","05","02","feedback","test","null","","","na","","207","",""
"815.7999999523163","479472","HierDyepwlbdcq","sub17","05","02","rl","test","68","img/b_d_diag.png","3","68","pattern,shape,color","208","1",""
"null","480478","HierDyepwlbdcq","sub17","05","02","feedback","test","null","","","na","","208","",""
"595.8000000119209","481076","HierDyepwlbdcq","sub17","05","02","rl","test","76","img/p_d_diag.png","4","70","pattern,shape,color","209","0",""
"null","482088","HierDyepwlbdcq","sub17","05","02","feedback","test","null","","","na","","209","",""
"867.5","482957","HierDyepwlbdcq","sub17","05","02","rl","test","65","img/b_c_diag.png","1","65","pattern,shape,color","210","1",""
"null","483970","HierDyepwlbdcq","sub17","05","02","feedback","test","null","","","na","","210","",""
"966.6999999880791","484939","HierDyepwlbdcq","sub17","05","02","rl","test","75","img/b_d_dots.png","7","75","pattern,shape,color","211","1",""
"null","485944","HierDyepwlbdcq","sub17","05","02","feedback","test","null","","","na","","211","",""
"1447.4000000357628","487393","HierDyepwlbdcq","sub17","05","02","rl","test","65","img/b_c_diag.png","1","65","pattern,shape,color","212","1",""
"null","488399","HierDyepwlbdcq","sub17","05","02","feedback","test","null","","","na","","212","",""
"1051.5","489452","HierDyepwlbdcq","sub17","05","02","rl","test","75","img/b_d_dots.png","7","75","pattern,shape,color","213","1",""
"null","490462","HierDyepwlbdcq","sub17","05","02","feedback","test","null","","","na","","213","",""
"2013.0999999642372","492477","HierDyepwlbdcq","sub17","05","02","rl","test","74","img/p_c_dots.png","6","74","pattern,shape,color","214","1",""
"null","493487","HierDyepwlbdcq","sub17","05","02","feedback","test","null","","","na","","214","",""
"717.5999999642372","494206","HierDyepwlbdcq","sub17","05","02","rl","test","72","img/b_c_dots.png","5","72","pattern,shape,color","215","1",""
"null","495213","HierDyepwlbdcq","sub17","05","02","feedback","test","null","","","na","","215","",""
"873.6000000238419","496088","HierDyepwlbdcq","sub17","05","02","rl","test","83","img/p_c_diag.png","2","83","pattern,shape,color","216","1",""
"null","497094","HierDyepwlbdcq","sub17","05","02","feedback","test","null","","","na","","216","",""
"504.39999997615814","497600","HierDyepwlbdcq","sub17","05","02","rl","test","83","img/p_c_diag.png","2","83","pattern,shape,color","217","1",""
"null","498608","HierDyepwlbdcq","sub17","05","02","feedback","test","null","","","na","","217","",""
"659.8999999761581","499269","HierDyepwlbdcq","sub17","05","02","rl","test","70","img/p_d_diag.png","4","70","pattern,shape,color","218","1",""
"null","500278","HierDyepwlbdcq","sub17","05","02","feedback","test","null","","","na","","218","",""
"1011.1000000238419","501290","HierDyepwlbdcq","sub17","05","02","rl","test","76","img/p_d_dots.png","8","76","pattern,shape,color","219","1",""
"null","502293","HierDyepwlbdcq","sub17","05","02","feedback","test","null","","","na","","219","",""
"631","502926","HierDyepwlbdcq","sub17","05","02","rl","test","75","img/b_d_dots.png","7","75","pattern,shape,color","220","1",""
"null","503935","HierDyepwlbdcq","sub17","05","02","feedback","test","null","","","na","","220","",""
"891.6000000238419","504829","HierDyepwlbdcq","sub17","05","02","rl","test","72","img/b_c_dots.png","5","72","pattern,shape,color","221","1",""
"null","505836","HierDyepwlbdcq","sub17","05","02","feedback","test","null","","","na","","221","",""
"1033.3999999761581","506871","HierDyepwlbdcq","sub17","05","02","rl","test","74","img/p_c_dots.png","6","74","pattern,shape,color","222","1",""
"null","507879","HierDyepwlbdcq","sub17","05","02","feedback","test","null","","","na","","222","",""
"995.6000000238419","508877","HierDyepwlbdcq","sub17","05","02","rl","test","68","img/b_d_diag.png","3","68","pattern,shape,color","223","1",""
"null","509885","HierDyepwlbdcq","sub17","05","02","feedback","test","null","","","na","","223","",""
"1892.4000000357628","511779","HierDyepwlbdcq","sub17","05","02","rl","test","72","img/b_c_dots.png","5","72","pattern,shape,color","224","1",""
"null","512783","HierDyepwlbdcq","sub17","05","02","feedback","test","null","","","na","","224","",""
"818.5999999642372","513603","HierDyepwlbdcq","sub17","05","02","rl","test","74","img/p_c_dots.png","6","74","pattern,shape,color","225","1",""
"null","514609","HierDyepwlbdcq","sub17","05","02","feedback","test","null","","","na","","225","",""
"783.1999999880791","515394","HierDyepwlbdcq","sub17","05","02","rl","test","83","img/b_c_diag.png","1","65","pattern,shape,color","226","0",""
"null","516400","HierDyepwlbdcq","sub17","05","02","feedback","test","null","","","na","","226","",""
"null","518912","HierDyepwlbdcq","sub17","05","02","rl","test","null","img/p_c_diag.png","2","83","pattern,shape,color","227","0",""
"null","519920","HierDyepwlbdcq","sub17","05","02","feedback","test","null","","","na","","227","",""
"689.1999999880791","520611","HierDyepwlbdcq","sub17","05","02","rl","test","70","img/b_d_diag.png","3","68","pattern,shape,color","228","0",""
"null","521615","HierDyepwlbdcq","sub17","05","02","feedback","test","null","","","na","","228","",""
"736.3000000119209","522353","HierDyepwlbdcq","sub17","05","02","rl","test","75","img/b_d_dots.png","7","75","pattern,shape,color","229","1",""
"null","523359","HierDyepwlbdcq","sub17","05","02","feedback","test","null","","","na","","229","",""
"659.1999999880791","524020","HierDyepwlbdcq","sub17","05","02","rl","test","68","img/p_d_diag.png","4","70","pattern,shape,color","230","0",""
"null","525031","HierDyepwlbdcq","sub17","05","02","feedback","test","null","","","na","","230","",""
"513.3000000119209","525546","HierDyepwlbdcq","sub17","05","02","rl","test","70","img/p_d_diag.png","4","70","pattern,shape,color","231","1",""
"null","526552","HierDyepwlbdcq","sub17","05","02","feedback","test","null","","","na","","231","",""
"1289.1000000238419","527843","HierDyepwlbdcq","sub17","05","02","rl","test","65","img/b_c_diag.png","1","65","pattern,shape,color","232","1",""
"null","528846","HierDyepwlbdcq","sub17","05","02","feedback","test","null","","","na","","232","",""
"1130.3999999761581","529977","HierDyepwlbdcq","sub17","05","02","rl","test","74","img/p_c_dots.png","6","74","pattern,shape,color","233","1",""
"null","530981","HierDyepwlbdcq","sub17","05","02","feedback","test","null","","","na","","233","",""
"1290.6000000238419","532274","HierDyepwlbdcq","sub17","05","02","rl","test","76","img/p_d_dots.png","8","76","pattern,shape,color","234","1",""
"null","533278","HierDyepwlbdcq","sub17","05","02","feedback","test","null","","","na","","234","",""
"1283","534562","HierDyepwlbdcq","sub17","05","02","rl","test","68","img/b_d_diag.png","3","68","pattern,shape,color","235","1",""
"null","535567","HierDyepwlbdcq","sub17","05","02","feedback","test","null","","","na","","235","",""
"821.1000000238419","536390","HierDyepwlbdcq","sub17","05","02","rl","test","65","img/b_c_diag.png","1","65","pattern,shape,color","236","1",""
"null","537401","HierDyepwlbdcq","sub17","05","02","feedback","test","null","","","na","","236","",""
"905.5","538307","HierDyepwlbdcq","sub17","05","02","rl","test","75","img/b_d_dots.png","7","75","pattern,shape,color","237","1",""
"null","539318","HierDyepwlbdcq","sub17","05","02","feedback","test","null","","","na","","237","",""
"1261.5","540580","HierDyepwlbdcq","sub17","05","02","rl","test","83","img/p_c_diag.png","2","83","pattern,shape,color","238","1",""
"null","541588","HierDyepwlbdcq","sub17","05","02","feedback","test","null","","","na","","238","",""
"970.8999999761581","542560","HierDyepwlbdcq","sub17","05","02","rl","test","72","img/b_c_dots.png","5","72","pattern,shape,color","239","1",""
"null","543569","HierDyepwlbdcq","sub17","05","02","feedback","test","null","","","na","","239","",""
"547.2000000476837","544118","HierDyepwlbdcq","sub17","05","02","rl","test","76","img/p_d_dots.png","8","76","pattern,shape,color","240","1",""
"null","545125","HierDyepwlbdcq","sub17","05","02","feedback","test","null","","","na","","240","",""
"988","546114","HierDyepwlbdcq","sub17","05","02","rl","test","72","img/b_c_dots.png","5","72","pattern,shape,color","241","1",""
"null","547118","HierDyepwlbdcq","sub17","05","02","feedback","test","null","","","na","","241","",""
"760.3999999761581","547880","HierDyepwlbdcq","sub17","05","02","rl","test","75","img/b_d_dots.png","7","75","pattern,shape,color","242","1",""
"null","548884","HierDyepwlbdcq","sub17","05","02","feedback","test","null","","","na","","242","",""
"1552.9000000357628","550439","HierDyepwlbdcq","sub17","05","02","rl","test","74","img/p_c_dots.png","6","74","pattern,shape,color","243","1",""
"null","551445","HierDyepwlbdcq","sub17","05","02","feedback","test","null","","","na","","243","",""
"2169.300000011921","553616","HierDyepwlbdcq","sub17","05","02","rl","test","76","img/p_d_dots.png","8","76","pattern,shape,color","244","1",""
"null","554621","HierDyepwlbdcq","sub17","05","02","feedback","test","null","","","na","","244","",""
"1160.699999988079","555784","HierDyepwlbdcq","sub17","05","02","rl","test","83","img/p_c_diag.png","2","83","pattern,shape,color","245","1",""
"null","556790","HierDyepwlbdcq","sub17","05","02","feedback","test","null","","","na","","245","",""
"751.3000000119209","557542","HierDyepwlbdcq","sub17","05","02","rl","test","70","img/p_d_diag.png","4","70","pattern,shape,color","246","1",""
"null","558553","HierDyepwlbdcq","sub17","05","02","feedback","test","null","","","na","","246","",""
"635.5999999642372","559190","HierDyepwlbdcq","sub17","05","02","rl","test","68","img/b_d_diag.png","3","68","pattern,shape,color","247","1",""
"null","560198","HierDyepwlbdcq","sub17","05","02","feedback","test","null","","","na","","247","",""
"885.8999999761581","561086","HierDyepwlbdcq","sub17","05","02","rl","test","70","img/p_d_diag.png","4","70","pattern,shape,color","248","1",""
"null","562095","HierDyepwlbdcq","sub17","05","02","feedback","test","null","","","na","","248","",""
"5536.599999964237","567637","HierDyepwlbdcq","sub17","05","02","","","","","","","","","","{""Q0"":""12""}"
"4817.800000011921","572459","HierDyepwlbdcq","sub17","05","02","","","","","","","","","","{""Q0"":""none""}"
"2785.199999988079","575245","HierDyepwlbdcq","sub17","05","02","","","","","","","","","",""
