"rt","time_elapsed","subject","subID","group","day","trialType","phase","key_press","stim","stimNum","corrresp","hierarchy","trialNum","corr","responses"
"7715.29999999702","7716","HierDytdyl5ob6","sub10","10","3","","","","","","","","","",""
"","10790","HierDytdyl5ob6","sub10","10","3","fullscreen","","","","","","","","",""
"3399.6000000089407","14191","HierDytdyl5ob6","sub10","10","3","","prac","","","","","","","",""
"7644.20000000298","21839","HierDytdyl5ob6","sub10","10","3","","","32","","","","","","",""
"1841.6000000089407","23682","HierDytdyl5ob6","sub10","10","3","","prac","","","","","","","",""
"684.7000000029802","24369","HierDytdyl5ob6","sub10","10","3","rl","test","70","img/b_s_check.png","4","70","shape,pattern,color","1","1",""
"null","25378","HierDytdyl5ob6","sub10","10","3","feedback","test","null","","","na","","1","",""
"629.2000000029802","26009","HierDytdyl5ob6","sub10","10","3","rl","test","68","img/p_s_check.png","3","68","shape,pattern,color","2","1",""
"null","27018","HierDytdyl5ob6","sub10","10","3","feedback","test","null","","","na","","2","",""
"1429.6000000089407","28449","HierDytdyl5ob6","sub10","10","3","rl","test","65","img/p_s_stripes.png","1","65","shape,pattern,color","3","1",""
"null","29455","HierDytdyl5ob6","sub10","10","3","feedback","test","null","","","na","","3","",""
"989.5999999940395","30447","HierDytdyl5ob6","sub10","10","3","rl","test","74","img/b_t_stripes.png","6","74","shape,pattern,color","4","1",""
"null","31452","HierDytdyl5ob6","sub10","10","3","feedback","test","null","","","na","","4","",""
"583.2000000029802","32036","HierDytdyl5ob6","sub10","10","3","rl","test","72","img/p_t_stripes.png","5","72","shape,pattern,color","5","1",""
"null","33052","HierDytdyl5ob6","sub10","10","3","feedback","test","null","","","na","","5","",""
"550.5","33603","HierDytdyl5ob6","sub10","10","3","rl","test","83","img/b_s_stripes.png","2","83","shape,pattern,color","6","1",""
"null","34613","HierDytdyl5ob6","sub10","10","3","feedback","test","null","","","na","","6","",""
"986.7000000029802","35601","HierDytdyl5ob6","sub10","10","3","rl","test","74","img/b_t_stripes.png","6","74","shape,pattern,color","7","1",""
"null","36608","HierDytdyl5ob6","sub10","10","3","feedback","test","null","","","na","","7","",""
"857.5","37467","HierDytdyl5ob6","sub10","10","3","rl","test","75","img/p_t_check.png","7","75","shape,pattern,color","8","1",""
"null","38476","HierDytdyl5ob6","sub10","10","3","feedback","test","null","","","na","","8","",""
"806.7999999970198","39284","HierDytdyl5ob6","sub10","10","3","rl","test","75","img/p_t_check.png","7","75","shape,pattern,color","9","1",""
"null","40292","HierDytdyl5ob6","sub10","10","3","feedback","test","null","","","na","","9","",""
"450.90000000596046","40745","HierDytdyl5ob6","sub10","10","3","rl","test","76","img/b_t_check.png","8","76","shape,pattern,color","10","1",""
"null","41750","HierDytdyl5ob6","sub10","10","3","feedback","test","null","","","na","","10","",""
"766.2000000029802","42518","HierDytdyl5ob6","sub10","10","3","rl","test","72","img/p_t_stripes.png","5","72","shape,pattern,color","11","1",""
"null","43525","HierDytdyl5ob6","sub10","10","3","feedback","test","null","","","na","","11","",""
"584.5999999940395","44111","HierDytdyl5ob6","sub10","10","3","rl","test","70","img/b_s_check.png","4","70","shape,pattern,color","12","1",""
"null","45120","HierDytdyl5ob6","sub10","10","3","feedback","test","null","","","na","","12","",""
"500.29999999701977","45622","HierDytdyl5ob6","sub10","10","3","rl","test","68","img/p_s_check.png","3","68","shape,pattern,color","13","1",""
"null","46635","HierDytdyl5ob6","sub10","10","3","feedback","test","null","","","na","","13","",""
"827.9000000059605","47464","HierDytdyl5ob6","sub10","10","3","rl","test","76","img/b_t_check.png","8","76","shape,pattern,color","14","1",""
"null","48469","HierDytdyl5ob6","sub10","10","3","feedback","test","null","","","na","","14","",""
"906.7999999970198","49377","HierDytdyl5ob6","sub10","10","3","rl","test","65","img/p_s_stripes.png","1","65","shape,pattern,color","15","1",""
"null","50384","HierDytdyl5ob6","sub10","10","3","feedback","test","null","","","na","","15","",""
"1118.699999988079","51504","HierDytdyl5ob6","sub10","10","3","rl","test","68","img/p_s_check.png","3","68","shape,pattern,color","16","1",""
"null","52511","HierDytdyl5ob6","sub10","10","3","feedback","test","null","","","na","","16","",""
"1367.7999999970198","53880","HierDytdyl5ob6","sub10","10","3","rl","test","65","img/p_s_stripes.png","1","65","shape,pattern,color","17","1",""
"null","54886","HierDytdyl5ob6","sub10","10","3","feedback","test","null","","","na","","17","",""
"728.9000000059605","55616","HierDytdyl5ob6","sub10","10","3","rl","test","76","img/p_t_check.png","7","75","shape,pattern,color","18","0",""
"null","56624","HierDytdyl5ob6","sub10","10","3","feedback","test","null","","","na","","18","",""
"1106.5999999940395","57732","HierDytdyl5ob6","sub10","10","3","rl","test","65","img/b_s_stripes.png","2","83","shape,pattern,color","19","0",""
"null","58740","HierDytdyl5ob6","sub10","10","3","feedback","test","null","","","na","","19","",""
"879.8999999910593","59622","HierDytdyl5ob6","sub10","10","3","rl","test","83","img/b_s_stripes.png","2","83","shape,pattern,color","20","1",""
"null","60628","HierDytdyl5ob6","sub10","10","3","feedback","test","null","","","na","","20","",""
"1489.1000000089407","62119","HierDytdyl5ob6","sub10","10","3","rl","test","74","img/b_t_stripes.png","6","74","shape,pattern,color","21","1",""
"null","63124","HierDytdyl5ob6","sub10","10","3","feedback","test","null","","","na","","21","",""
"1368.9000000059605","64495","HierDytdyl5ob6","sub10","10","3","rl","test","76","img/b_t_check.png","8","76","shape,pattern,color","22","1",""
"null","65503","HierDytdyl5ob6","sub10","10","3","feedback","test","null","","","na","","22","",""
"502.8999999910593","66008","HierDytdyl5ob6","sub10","10","3","rl","test","75","img/p_t_check.png","7","75","shape,pattern,color","23","1",""
"null","67014","HierDytdyl5ob6","sub10","10","3","feedback","test","null","","","na","","23","",""
"1237.6000000089407","68252","HierDytdyl5ob6","sub10","10","3","rl","test","72","img/p_t_stripes.png","5","72","shape,pattern,color","24","1",""
"null","69259","HierDytdyl5ob6","sub10","10","3","feedback","test","null","","","na","","24","",""
"572.7999999970198","69833","HierDytdyl5ob6","sub10","10","3","rl","test","74","img/b_t_stripes.png","6","74","shape,pattern,color","25","1",""
"null","70839","HierDytdyl5ob6","sub10","10","3","feedback","test","null","","","na","","25","",""
"604.6000000089407","71445","HierDytdyl5ob6","sub10","10","3","rl","test","70","img/b_s_check.png","4","70","shape,pattern,color","26","1",""
"null","72454","HierDytdyl5ob6","sub10","10","3","feedback","test","null","","","na","","26","",""
"1687.5999999940395","74143","HierDytdyl5ob6","sub10","10","3","rl","test","83","img/b_s_stripes.png","2","83","shape,pattern,color","27","1",""
"null","75150","HierDytdyl5ob6","sub10","10","3","feedback","test","null","","","na","","27","",""
"584.9000000059605","75736","HierDytdyl5ob6","sub10","10","3","rl","test","70","img/b_s_check.png","4","70","shape,pattern,color","28","1",""
"null","76743","HierDytdyl5ob6","sub10","10","3","feedback","test","null","","","na","","28","",""
"801.3999999910593","77546","HierDytdyl5ob6","sub10","10","3","rl","test","68","img/p_s_check.png","3","68","shape,pattern,color","29","1",""
"null","78555","HierDytdyl5ob6","sub10","10","3","feedback","test","null","","","na","","29","",""
"1254.2999999970198","79811","HierDytdyl5ob6","sub10","10","3","rl","test","72","img/p_t_stripes.png","5","72","shape,pattern,color","30","1",""
"null","80823","HierDytdyl5ob6","sub10","10","3","feedback","test","null","","","na","","30","",""
"981.5","81806","HierDytdyl5ob6","sub10","10","3","rl","test","76","img/b_t_check.png","8","76","shape,pattern,color","31","1",""
"null","82812","HierDytdyl5ob6","sub10","10","3","feedback","test","null","","","na","","31","",""
"1883.800000011921","84697","HierDytdyl5ob6","sub10","10","3","rl","test","83","img/p_s_stripes.png","1","65","shape,pattern,color","32","0",""
"null","85713","HierDytdyl5ob6","sub10","10","3","feedback","test","null","","","na","","32","",""
"574.0999999940395","86289","HierDytdyl5ob6","sub10","10","3","rl","test","68","img/b_s_check.png","4","70","shape,pattern,color","33","0",""
"null","87305","HierDytdyl5ob6","sub10","10","3","feedback","test","null","","","na","","33","",""
"1169.5999999940395","88476","HierDytdyl5ob6","sub10","10","3","rl","test","72","img/p_t_stripes.png","5","72","shape,pattern,color","34","1",""
"null","89485","HierDytdyl5ob6","sub10","10","3","feedback","test","null","","","na","","34","",""
"691.8999999910593","90178","HierDytdyl5ob6","sub10","10","3","rl","test","83","img/b_s_stripes.png","2","83","shape,pattern,color","35","1",""
"null","91193","HierDytdyl5ob6","sub10","10","3","feedback","test","null","","","na","","35","",""
"920.4000000059605","92115","HierDytdyl5ob6","sub10","10","3","rl","test","68","img/p_s_check.png","3","68","shape,pattern,color","36","1",""
"null","93129","HierDytdyl5ob6","sub10","10","3","feedback","test","null","","","na","","36","",""
"1039.699999988079","94170","HierDytdyl5ob6","sub10","10","3","rl","test","76","img/p_t_check.png","7","75","shape,pattern,color","37","0",""
"null","95183","HierDytdyl5ob6","sub10","10","3","feedback","test","null","","","na","","37","",""
"997.4000000059605","96181","HierDytdyl5ob6","sub10","10","3","rl","test","83","img/b_s_stripes.png","2","83","shape,pattern,color","38","1",""
"null","97188","HierDytdyl5ob6","sub10","10","3","feedback","test","null","","","na","","38","",""
"1878.7999999970198","99068","HierDytdyl5ob6","sub10","10","3","rl","test","75","img/p_t_check.png","7","75","shape,pattern,color","39","1",""
"null","100079","HierDytdyl5ob6","sub10","10","3","feedback","test","null","","","na","","39","",""
"1047.7999999970198","101128","HierDytdyl5ob6","sub10","10","3","rl","test","74","img/b_t_stripes.png","6","74","shape,pattern,color","40","1",""
"null","102134","HierDytdyl5ob6","sub10","10","3","feedback","test","null","","","na","","40","",""
"1039","103174","HierDytdyl5ob6","sub10","10","3","rl","test","76","img/b_t_check.png","8","76","shape,pattern,color","41","1",""
"null","104183","HierDytdyl5ob6","sub10","10","3","feedback","test","null","","","na","","41","",""
"867.0999999940395","105051","HierDytdyl5ob6","sub10","10","3","rl","test","76","img/b_t_check.png","8","76","shape,pattern,color","42","1",""
"null","106065","HierDytdyl5ob6","sub10","10","3","feedback","test","null","","","na","","42","",""
"1258.8999999910593","107325","HierDytdyl5ob6","sub10","10","3","rl","test","65","img/p_s_stripes.png","1","65","shape,pattern,color","43","1",""
"null","108333","HierDytdyl5ob6","sub10","10","3","feedback","test","null","","","na","","43","",""
"1319.2000000029802","109654","HierDytdyl5ob6","sub10","10","3","rl","test","74","img/b_t_stripes.png","6","74","shape,pattern,color","44","1",""
"null","110661","HierDytdyl5ob6","sub10","10","3","feedback","test","null","","","na","","44","",""
"1129.7999999970198","111792","HierDytdyl5ob6","sub10","10","3","rl","test","70","img/b_s_check.png","4","70","shape,pattern,color","45","1",""
"null","112806","HierDytdyl5ob6","sub10","10","3","feedback","test","null","","","na","","45","",""
"1020.0999999940395","113828","HierDytdyl5ob6","sub10","10","3","rl","test","65","img/p_s_stripes.png","1","65","shape,pattern,color","46","1",""
"null","114835","HierDytdyl5ob6","sub10","10","3","feedback","test","null","","","na","","46","",""
"730.9000000059605","115567","HierDytdyl5ob6","sub10","10","3","rl","test","68","img/p_s_check.png","3","68","shape,pattern,color","47","1",""
"null","116573","HierDytdyl5ob6","sub10","10","3","feedback","test","null","","","na","","47","",""
"867.8000000119209","117442","HierDytdyl5ob6","sub10","10","3","rl","test","72","img/p_t_stripes.png","5","72","shape,pattern,color","48","1",""
"null","118453","HierDytdyl5ob6","sub10","10","3","feedback","test","null","","","na","","48","",""
"1926","120381","HierDytdyl5ob6","sub10","10","3","rl","test","75","img/p_t_check.png","7","75","shape,pattern,color","49","1",""
"null","121387","HierDytdyl5ob6","sub10","10","3","feedback","test","null","","","na","","49","",""
"740.4000000059605","122129","HierDytdyl5ob6","sub10","10","3","rl","test","72","img/p_t_stripes.png","5","72","shape,pattern,color","50","1",""
"null","123140","HierDytdyl5ob6","sub10","10","3","feedback","test","null","","","na","","50","",""
"553.1999999880791","123695","HierDytdyl5ob6","sub10","10","3","rl","test","70","img/b_s_check.png","4","70","shape,pattern,color","51","1",""
"null","124698","HierDytdyl5ob6","sub10","10","3","feedback","test","null","","","na","","51","",""
"763.8999999910593","125463","HierDytdyl5ob6","sub10","10","3","rl","test","74","img/b_t_stripes.png","6","74","shape,pattern,color","52","1",""
"null","126467","HierDytdyl5ob6","sub10","10","3","feedback","test","null","","","na","","52","",""
"1403.7999999970198","127872","HierDytdyl5ob6","sub10","10","3","rl","test","65","img/b_s_stripes.png","2","83","shape,pattern,color","53","0",""
"null","128886","HierDytdyl5ob6","sub10","10","3","feedback","test","null","","","na","","53","",""
"985.2999999970198","129873","HierDytdyl5ob6","sub10","10","3","rl","test","68","img/p_s_check.png","3","68","shape,pattern,color","54","1",""
"null","130881","HierDytdyl5ob6","sub10","10","3","feedback","test","null","","","na","","54","",""
"667.2999999970198","131549","HierDytdyl5ob6","sub10","10","3","rl","test","65","img/p_s_stripes.png","1","65","shape,pattern,color","55","1",""
"null","132554","HierDytdyl5ob6","sub10","10","3","feedback","test","null","","","na","","55","",""
"602.0999999940395","133157","HierDytdyl5ob6","sub10","10","3","rl","test","70","img/b_s_check.png","4","70","shape,pattern,color","56","1",""
"null","134162","HierDytdyl5ob6","sub10","10","3","feedback","test","null","","","na","","56","",""
"948.0999999940395","135111","HierDytdyl5ob6","sub10","10","3","rl","test","76","img/b_t_check.png","8","76","shape,pattern,color","57","1",""
"null","136121","HierDytdyl5ob6","sub10","10","3","feedback","test","null","","","na","","57","",""
"549.4000000059605","136672","HierDytdyl5ob6","sub10","10","3","rl","test","76","img/b_t_check.png","8","76","shape,pattern,color","58","1",""
"null","137688","HierDytdyl5ob6","sub10","10","3","feedback","test","null","","","na","","58","",""
"955","138644","HierDytdyl5ob6","sub10","10","3","rl","test","68","img/p_s_check.png","3","68","shape,pattern,color","59","1",""
"null","139651","HierDytdyl5ob6","sub10","10","3","feedback","test","null","","","na","","59","",""
"1192.2999999970198","140845","HierDytdyl5ob6","sub10","10","3","rl","test","83","img/b_t_stripes.png","6","74","shape,pattern,color","60","0",""
"null","141851","HierDytdyl5ob6","sub10","10","3","feedback","test","null","","","na","","60","",""
"1863.9000000059605","143717","HierDytdyl5ob6","sub10","10","3","rl","test","75","img/p_t_check.png","7","75","shape,pattern,color","61","1",""
"null","144723","HierDytdyl5ob6","sub10","10","3","feedback","test","null","","","na","","61","",""
"1706.5999999940395","146431","HierDytdyl5ob6","sub10","10","3","rl","test","72","img/p_t_stripes.png","5","72","shape,pattern,color","62","1",""
"null","147445","HierDytdyl5ob6","sub10","10","3","feedback","test","null","","","na","","62","",""
"1451.4000000059605","148898","HierDytdyl5ob6","sub10","10","3","rl","test","83","img/b_s_stripes.png","2","83","shape,pattern,color","63","1",""
"null","149905","HierDytdyl5ob6","sub10","10","3","feedback","test","null","","","na","","63","",""
"1035","150941","HierDytdyl5ob6","sub10","10","3","rl","test","65","img/p_s_stripes.png","1","65","shape,pattern,color","64","1",""
"null","151945","HierDytdyl5ob6","sub10","10","3","feedback","test","null","","","na","","64","",""
"473.80000001192093","152421","HierDytdyl5ob6","sub10","10","3","rl","test","83","img/b_s_stripes.png","2","83","shape,pattern,color","65","1",""
"null","153427","HierDytdyl5ob6","sub10","10","3","feedback","test","null","","","na","","65","",""
"1202.2000000029802","154630","HierDytdyl5ob6","sub10","10","3","rl","test","68","img/p_s_check.png","3","68","shape,pattern,color","66","1",""
"null","155635","HierDytdyl5ob6","sub10","10","3","feedback","test","null","","","na","","66","",""
"800.2999999970198","156437","HierDytdyl5ob6","sub10","10","3","rl","test","75","img/p_t_check.png","7","75","shape,pattern,color","67","1",""
"null","157444","HierDytdyl5ob6","sub10","10","3","feedback","test","null","","","na","","67","",""
"794.7000000029802","158240","HierDytdyl5ob6","sub10","10","3","rl","test","65","img/p_s_stripes.png","1","65","shape,pattern,color","68","1",""
"null","159248","HierDytdyl5ob6","sub10","10","3","feedback","test","null","","","na","","68","",""
"564.2999999970198","159813","HierDytdyl5ob6","sub10","10","3","rl","test","70","img/b_s_check.png","4","70","shape,pattern,color","69","1",""
"null","160819","HierDytdyl5ob6","sub10","10","3","feedback","test","null","","","na","","69","",""
"842","161662","HierDytdyl5ob6","sub10","10","3","rl","test","75","img/p_t_check.png","7","75","shape,pattern,color","70","1",""
"null","162679","HierDytdyl5ob6","sub10","10","3","feedback","test","null","","","na","","70","",""
"1298.5","163979","HierDytdyl5ob6","sub10","10","3","rl","test","72","img/b_t_stripes.png","6","74","shape,pattern,color","71","0",""
"null","164987","HierDytdyl5ob6","sub10","10","3","feedback","test","null","","","na","","71","",""
"1144.2000000029802","166132","HierDytdyl5ob6","sub10","10","3","rl","test","76","img/b_t_check.png","8","76","shape,pattern,color","72","1",""
"null","167139","HierDytdyl5ob6","sub10","10","3","feedback","test","null","","","na","","72","",""
"844","167984","HierDytdyl5ob6","sub10","10","3","rl","test","72","img/p_t_stripes.png","5","72","shape,pattern,color","73","1",""
"null","168992","HierDytdyl5ob6","sub10","10","3","feedback","test","null","","","na","","73","",""
"496.59999999403954","169490","HierDytdyl5ob6","sub10","10","3","rl","test","72","img/p_t_stripes.png","5","72","shape,pattern,color","74","1",""
"null","170500","HierDytdyl5ob6","sub10","10","3","feedback","test","null","","","na","","74","",""
"918","171420","HierDytdyl5ob6","sub10","10","3","rl","test","65","img/p_s_stripes.png","1","65","shape,pattern,color","75","1",""
"null","172424","HierDytdyl5ob6","sub10","10","3","feedback","test","null","","","na","","75","",""
"1025.300000011921","173451","HierDytdyl5ob6","sub10","10","3","rl","test","74","img/b_t_stripes.png","6","74","shape,pattern,color","76","1",""
"null","174458","HierDytdyl5ob6","sub10","10","3","feedback","test","null","","","na","","76","",""
"627.2999999970198","175087","HierDytdyl5ob6","sub10","10","3","rl","test","70","img/b_s_check.png","4","70","shape,pattern,color","77","1",""
"null","176097","HierDytdyl5ob6","sub10","10","3","feedback","test","null","","","na","","77","",""
"793.6000000089407","176892","HierDytdyl5ob6","sub10","10","3","rl","test","83","img/b_s_stripes.png","2","83","shape,pattern,color","78","1",""
"null","177898","HierDytdyl5ob6","sub10","10","3","feedback","test","null","","","na","","78","",""
"1623.2000000029802","179523","HierDytdyl5ob6","sub10","10","3","rl","test","68","img/p_s_check.png","3","68","shape,pattern,color","79","1",""
"null","180531","HierDytdyl5ob6","sub10","10","3","feedback","test","null","","","na","","79","",""
"1905.9000000059605","182438","HierDytdyl5ob6","sub10","10","3","rl","test","74","img/b_t_stripes.png","6","74","shape,pattern,color","80","1",""
"null","183452","HierDytdyl5ob6","sub10","10","3","feedback","test","null","","","na","","80","",""
"1260.2999999970198","184714","HierDytdyl5ob6","sub10","10","3","rl","test","68","img/p_s_check.png","3","68","shape,pattern,color","81","1",""
"null","185720","HierDytdyl5ob6","sub10","10","3","feedback","test","null","","","na","","81","",""
"1261.5999999940395","186983","HierDytdyl5ob6","sub10","10","3","rl","test","76","img/b_t_check.png","8","76","shape,pattern,color","82","1",""
"null","187996","HierDytdyl5ob6","sub10","10","3","feedback","test","null","","","na","","82","",""
"523.6000000089407","188521","HierDytdyl5ob6","sub10","10","3","rl","test","76","img/b_t_check.png","8","76","shape,pattern,color","83","1",""
"null","189529","HierDytdyl5ob6","sub10","10","3","feedback","test","null","","","na","","83","",""
"808.2000000029802","190338","HierDytdyl5ob6","sub10","10","3","rl","test","65","img/p_s_stripes.png","1","65","shape,pattern,color","84","1",""
"null","191344","HierDytdyl5ob6","sub10","10","3","feedback","test","null","","","na","","84","",""
"865.5","192210","HierDytdyl5ob6","sub10","10","3","rl","test","75","img/p_t_check.png","7","75","shape,pattern,color","85","1",""
"null","193219","HierDytdyl5ob6","sub10","10","3","feedback","test","null","","","na","","85","",""
"1476","194696","HierDytdyl5ob6","sub10","10","3","rl","test","72","img/p_t_stripes.png","5","72","shape,pattern,color","86","1",""
"null","195703","HierDytdyl5ob6","sub10","10","3","feedback","test","null","","","na","","86","",""
"1332.699999988079","197037","HierDytdyl5ob6","sub10","10","3","rl","test","68","img/p_s_check.png","3","68","shape,pattern,color","87","1",""
"null","198041","HierDytdyl5ob6","sub10","10","3","feedback","test","null","","","na","","87","",""
"1194.699999988079","199237","HierDytdyl5ob6","sub10","10","3","rl","test","72","img/p_t_stripes.png","5","72","shape,pattern,color","88","1",""
"null","200247","HierDytdyl5ob6","sub10","10","3","feedback","test","null","","","na","","88","",""
"672.2999999970198","200920","HierDytdyl5ob6","sub10","10","3","rl","test","70","img/b_s_check.png","4","70","shape,pattern,color","89","1",""
"null","201929","HierDytdyl5ob6","sub10","10","3","feedback","test","null","","","na","","89","",""
"1761","203691","HierDytdyl5ob6","sub10","10","3","rl","test","74","img/b_t_stripes.png","6","74","shape,pattern,color","90","1",""
"null","204698","HierDytdyl5ob6","sub10","10","3","feedback","test","null","","","na","","90","",""
"913.8000000119209","205613","HierDytdyl5ob6","sub10","10","3","rl","test","83","img/b_s_stripes.png","2","83","shape,pattern,color","91","1",""
"null","206629","HierDytdyl5ob6","sub10","10","3","feedback","test","null","","","na","","91","",""
"598.7999999970198","207229","HierDytdyl5ob6","sub10","10","3","rl","test","70","img/b_s_check.png","4","70","shape,pattern,color","92","1",""
"null","208243","HierDytdyl5ob6","sub10","10","3","feedback","test","null","","","na","","92","",""
"780.5","209024","HierDytdyl5ob6","sub10","10","3","rl","test","65","img/p_s_stripes.png","1","65","shape,pattern,color","93","1",""
"null","210031","HierDytdyl5ob6","sub10","10","3","feedback","test","null","","","na","","93","",""
"1146.3999999910593","211179","HierDytdyl5ob6","sub10","10","3","rl","test","83","img/b_s_stripes.png","2","83","shape,pattern,color","94","1",""
"null","212189","HierDytdyl5ob6","sub10","10","3","feedback","test","null","","","na","","94","",""
"1216.7000000029802","213407","HierDytdyl5ob6","sub10","10","3","rl","test","76","img/b_t_check.png","8","76","shape,pattern,color","95","1",""
"null","214419","HierDytdyl5ob6","sub10","10","3","feedback","test","null","","","na","","95","",""
"617.5","215038","HierDytdyl5ob6","sub10","10","3","rl","test","75","img/p_t_check.png","7","75","shape,pattern,color","96","1",""
"null","216051","HierDytdyl5ob6","sub10","10","3","feedback","test","null","","","na","","96","",""
"693.7000000029802","216746","HierDytdyl5ob6","sub10","10","3","rl","test","75","img/p_t_check.png","7","75","shape,pattern,color","97","1",""
"null","217753","HierDytdyl5ob6","sub10","10","3","feedback","test","null","","","na","","97","",""
"1038.199999988079","218793","HierDytdyl5ob6","sub10","10","3","rl","test","83","img/b_s_stripes.png","2","83","shape,pattern,color","98","1",""
"null","219800","HierDytdyl5ob6","sub10","10","3","feedback","test","null","","","na","","98","",""
"602.7000000029802","220404","HierDytdyl5ob6","sub10","10","3","rl","test","65","img/p_s_stripes.png","1","65","shape,pattern,color","99","1",""
"null","221407","HierDytdyl5ob6","sub10","10","3","feedback","test","null","","","na","","99","",""
"885.5","222294","HierDytdyl5ob6","sub10","10","3","rl","test","76","img/b_t_check.png","8","76","shape,pattern,color","100","1",""
"null","223305","HierDytdyl5ob6","sub10","10","3","feedback","test","null","","","na","","100","",""
"1374.5999999940395","224681","HierDytdyl5ob6","sub10","10","3","rl","test","68","img/p_s_check.png","3","68","shape,pattern,color","101","1",""
"null","225686","HierDytdyl5ob6","sub10","10","3","feedback","test","null","","","na","","101","",""
"1243","226931","HierDytdyl5ob6","sub10","10","3","rl","test","72","img/p_t_stripes.png","5","72","shape,pattern,color","102","1",""
"null","227934","HierDytdyl5ob6","sub10","10","3","feedback","test","null","","","na","","102","",""
"672.1999999880791","228608","HierDytdyl5ob6","sub10","10","3","rl","test","70","img/b_s_check.png","4","70","shape,pattern,color","103","1",""
"null","229616","HierDytdyl5ob6","sub10","10","3","feedback","test","null","","","na","","103","",""
"1807.300000011921","231425","HierDytdyl5ob6","sub10","10","3","rl","test","74","img/b_t_stripes.png","6","74","shape,pattern,color","104","1",""
"null","232431","HierDytdyl5ob6","sub10","10","3","feedback","test","null","","","na","","104","",""
"997.2999999970198","233429","HierDytdyl5ob6","sub10","10","3","rl","test","83","img/b_s_stripes.png","2","83","shape,pattern,color","105","1",""
"null","234442","HierDytdyl5ob6","sub10","10","3","feedback","test","null","","","na","","105","",""
"1035.7000000029802","235479","HierDytdyl5ob6","sub10","10","3","rl","test","76","img/p_t_check.png","7","75","shape,pattern,color","106","0",""
"null","236490","HierDytdyl5ob6","sub10","10","3","feedback","test","null","","","na","","106","",""
"1435.7999999970198","237927","HierDytdyl5ob6","sub10","10","3","rl","test","72","img/p_t_stripes.png","5","72","shape,pattern,color","107","1",""
"null","238937","HierDytdyl5ob6","sub10","10","3","feedback","test","null","","","na","","107","",""
"661.1000000089407","239600","HierDytdyl5ob6","sub10","10","3","rl","test","76","img/b_t_check.png","8","76","shape,pattern,color","108","1",""
"null","240606","HierDytdyl5ob6","sub10","10","3","feedback","test","null","","","na","","108","",""
"773.2000000029802","241380","HierDytdyl5ob6","sub10","10","3","rl","test","70","img/p_s_check.png","3","68","shape,pattern,color","109","0",""
"null","242396","HierDytdyl5ob6","sub10","10","3","feedback","test","null","","","na","","109","",""
"394.29999999701977","242792","HierDytdyl5ob6","sub10","10","3","rl","test","70","img/b_s_check.png","4","70","shape,pattern,color","110","1",""
"null","243797","HierDytdyl5ob6","sub10","10","3","feedback","test","null","","","na","","110","",""
"2372.2000000029802","246171","HierDytdyl5ob6","sub10","10","3","rl","test","74","img/b_t_stripes.png","6","74","shape,pattern,color","111","1",""
"null","247176","HierDytdyl5ob6","sub10","10","3","feedback","test","null","","","na","","111","",""
"909.3999999910593","248086","HierDytdyl5ob6","sub10","10","3","rl","test","65","img/p_s_stripes.png","1","65","shape,pattern,color","112","1",""
"null","249094","HierDytdyl5ob6","sub10","10","3","feedback","test","null","","","na","","112","",""
"1583.9000000059605","250679","HierDytdyl5ob6","sub10","10","3","rl","test","68","img/p_s_check.png","3","68","shape,pattern,color","113","1",""
"null","251685","HierDytdyl5ob6","sub10","10","3","feedback","test","null","","","na","","113","",""
"1545.9000000059605","253233","HierDytdyl5ob6","sub10","10","3","rl","test","74","img/b_t_stripes.png","6","74","shape,pattern,color","114","1",""
"null","254238","HierDytdyl5ob6","sub10","10","3","feedback","test","null","","","na","","114","",""
"925.3999999910593","255165","HierDytdyl5ob6","sub10","10","3","rl","test","83","img/b_s_stripes.png","2","83","shape,pattern,color","115","1",""
"null","256173","HierDytdyl5ob6","sub10","10","3","feedback","test","null","","","na","","115","",""
"1661.699999988079","257837","HierDytdyl5ob6","sub10","10","3","rl","test","70","img/b_s_check.png","4","70","shape,pattern,color","116","1",""
"null","258849","HierDytdyl5ob6","sub10","10","3","feedback","test","null","","","na","","116","",""
"900.7000000029802","259752","HierDytdyl5ob6","sub10","10","3","rl","test","65","img/p_s_stripes.png","1","65","shape,pattern,color","117","1",""
"null","260757","HierDytdyl5ob6","sub10","10","3","feedback","test","null","","","na","","117","",""
"680.5","261439","HierDytdyl5ob6","sub10","10","3","rl","test","70","img/b_s_check.png","4","70","shape,pattern,color","118","1",""
"null","262445","HierDytdyl5ob6","sub10","10","3","feedback","test","null","","","na","","118","",""
"716.6999999880791","263163","HierDytdyl5ob6","sub10","10","3","rl","test","76","img/b_t_check.png","8","76","shape,pattern,color","119","1",""
"null","264173","HierDytdyl5ob6","sub10","10","3","feedback","test","null","","","na","","119","",""
"674.2999999970198","264848","HierDytdyl5ob6","sub10","10","3","rl","test","72","img/p_t_stripes.png","5","72","shape,pattern,color","120","1",""
"null","265854","HierDytdyl5ob6","sub10","10","3","feedback","test","null","","","na","","120","",""
"786","266642","HierDytdyl5ob6","sub10","10","3","rl","test","75","img/p_t_check.png","7","75","shape,pattern,color","121","1",""
"null","267646","HierDytdyl5ob6","sub10","10","3","feedback","test","null","","","na","","121","",""
"694.7999999970198","268343","HierDytdyl5ob6","sub10","10","3","rl","test","75","img/p_t_check.png","7","75","shape,pattern,color","122","1",""
"null","269348","HierDytdyl5ob6","sub10","10","3","feedback","test","null","","","na","","122","",""
"1382.7000000029802","270732","HierDytdyl5ob6","sub10","10","3","rl","test","74","img/b_t_stripes.png","6","74","shape,pattern,color","123","1",""
"null","271735","HierDytdyl5ob6","sub10","10","3","feedback","test","null","","","na","","123","",""
"920.3999999910593","272657","HierDytdyl5ob6","sub10","10","3","rl","test","76","img/b_t_check.png","8","76","shape,pattern,color","124","1",""
"null","273665","HierDytdyl5ob6","sub10","10","3","feedback","test","null","","","na","","124","",""
"767.5","274434","HierDytdyl5ob6","sub10","10","3","rl","test","65","img/p_s_stripes.png","1","65","shape,pattern,color","125","1",""
"null","275440","HierDytdyl5ob6","sub10","10","3","feedback","test","null","","","na","","125","",""
"741.2000000029802","276183","HierDytdyl5ob6","sub10","10","3","rl","test","72","img/p_t_stripes.png","5","72","shape,pattern,color","126","1",""
"null","277192","HierDytdyl5ob6","sub10","10","3","feedback","test","null","","","na","","126","",""
"674.4000000059605","277868","HierDytdyl5ob6","sub10","10","3","rl","test","83","img/b_s_stripes.png","2","83","shape,pattern,color","127","1",""
"null","278881","HierDytdyl5ob6","sub10","10","3","feedback","test","null","","","na","","127","",""
"1205.8999999910593","280088","HierDytdyl5ob6","sub10","10","3","rl","test","68","img/p_s_check.png","3","68","shape,pattern,color","128","1",""
"null","281096","HierDytdyl5ob6","sub10","10","3","feedback","test","null","","","na","","128","",""
"1521.7000000029802","282619","HierDytdyl5ob6","sub10","10","3","rl","test","65","img/p_s_stripes.png","1","65","shape,pattern,color","129","1",""
"null","283629","HierDytdyl5ob6","sub10","10","3","feedback","test","null","","","na","","129","",""
"1034.300000011921","284664","HierDytdyl5ob6","sub10","10","3","rl","test","68","img/p_s_check.png","3","68","shape,pattern,color","130","1",""
"null","285670","HierDytdyl5ob6","sub10","10","3","feedback","test","null","","","na","","130","",""
"1036.5999999940395","286708","HierDytdyl5ob6","sub10","10","3","rl","test","83","img/b_s_stripes.png","2","83","shape,pattern,color","131","1",""
"null","287716","HierDytdyl5ob6","sub10","10","3","feedback","test","null","","","na","","131","",""
"792","288510","HierDytdyl5ob6","sub10","10","3","rl","test","70","img/b_s_check.png","4","70","shape,pattern,color","132","1",""
"null","289515","HierDytdyl5ob6","sub10","10","3","feedback","test","null","","","na","","132","",""
"1353.7000000029802","290870","HierDytdyl5ob6","sub10","10","3","rl","test","74","img/b_t_stripes.png","6","74","shape,pattern,color","133","1",""
"null","291875","HierDytdyl5ob6","sub10","10","3","feedback","test","null","","","na","","133","",""
"1195.5","293072","HierDytdyl5ob6","sub10","10","3","rl","test","75","img/p_t_check.png","7","75","shape,pattern,color","134","1",""
"null","294078","HierDytdyl5ob6","sub10","10","3","feedback","test","null","","","na","","134","",""
"818.0999999940395","294898","HierDytdyl5ob6","sub10","10","3","rl","test","70","img/b_s_check.png","4","70","shape,pattern,color","135","1",""
"null","295910","HierDytdyl5ob6","sub10","10","3","feedback","test","null","","","na","","135","",""
"1206.1000000089407","297118","HierDytdyl5ob6","sub10","10","3","rl","test","72","img/p_t_stripes.png","5","72","shape,pattern,color","136","1",""
"null","298125","HierDytdyl5ob6","sub10","10","3","feedback","test","null","","","na","","136","",""
"554","298681","HierDytdyl5ob6","sub10","10","3","rl","test","72","img/p_t_stripes.png","5","72","shape,pattern,color","137","1",""
"null","299687","HierDytdyl5ob6","sub10","10","3","feedback","test","null","","","na","","137","",""
"1595.8999999910593","301284","HierDytdyl5ob6","sub10","10","3","rl","test","76","img/b_t_check.png","8","76","shape,pattern,color","138","1",""
"null","302292","HierDytdyl5ob6","sub10","10","3","feedback","test","null","","","na","","138","",""
"1281.1000000089407","303574","HierDytdyl5ob6","sub10","10","3","rl","test","74","img/b_t_stripes.png","6","74","shape,pattern,color","139","1",""
"null","304581","HierDytdyl5ob6","sub10","10","3","feedback","test","null","","","na","","139","",""
"1031.1000000089407","305613","HierDytdyl5ob6","sub10","10","3","rl","test","65","img/p_s_stripes.png","1","65","shape,pattern,color","140","1",""
"null","306622","HierDytdyl5ob6","sub10","10","3","feedback","test","null","","","na","","140","",""
"687.5","307311","HierDytdyl5ob6","sub10","10","3","rl","test","76","img/b_t_check.png","8","76","shape,pattern,color","141","1",""
"null","308322","HierDytdyl5ob6","sub10","10","3","feedback","test","null","","","na","","141","",""
"724.3999999910593","309048","HierDytdyl5ob6","sub10","10","3","rl","test","75","img/p_t_check.png","7","75","shape,pattern,color","142","1",""
"null","310052","HierDytdyl5ob6","sub10","10","3","feedback","test","null","","","na","","142","",""
"1149.7999999970198","311203","HierDytdyl5ob6","sub10","10","3","rl","test","68","img/p_s_check.png","3","68","shape,pattern,color","143","1",""
"null","312211","HierDytdyl5ob6","sub10","10","3","feedback","test","null","","","na","","143","",""
"538.7000000029802","312752","HierDytdyl5ob6","sub10","10","3","rl","test","70","img/b_s_check.png","4","70","shape,pattern,color","144","1",""
"null","313756","HierDytdyl5ob6","sub10","10","3","feedback","test","null","","","na","","144","",""
"578.8000000119209","314337","HierDytdyl5ob6","sub10","10","3","rl","test","68","img/p_s_check.png","3","68","shape,pattern,color","145","1",""
"null","315340","HierDytdyl5ob6","sub10","10","3","feedback","test","null","","","na","","145","",""
"839.2000000029802","316180","HierDytdyl5ob6","sub10","10","3","rl","test","83","img/b_s_stripes.png","2","83","shape,pattern,color","146","1",""
"null","317190","HierDytdyl5ob6","sub10","10","3","feedback","test","null","","","na","","146","",""
"1061.6000000089407","318253","HierDytdyl5ob6","sub10","10","3","rl","test","65","img/p_s_stripes.png","1","65","shape,pattern,color","147","1",""
"null","319259","HierDytdyl5ob6","sub10","10","3","feedback","test","null","","","na","","147","",""
"860.2000000029802","320120","HierDytdyl5ob6","sub10","10","3","rl","test","76","img/p_t_check.png","7","75","shape,pattern,color","148","0",""
"null","321126","HierDytdyl5ob6","sub10","10","3","feedback","test","null","","","na","","148","",""
"629.1000000089407","321756","HierDytdyl5ob6","sub10","10","3","rl","test","75","img/p_t_check.png","7","75","shape,pattern,color","149","1",""
"null","322762","HierDytdyl5ob6","sub10","10","3","feedback","test","null","","","na","","149","",""
"1010.4000000059605","323774","HierDytdyl5ob6","sub10","10","3","rl","test","83","img/b_s_stripes.png","2","83","shape,pattern,color","150","1",""
"null","324780","HierDytdyl5ob6","sub10","10","3","feedback","test","null","","","na","","150","",""
"1252.2999999970198","326034","HierDytdyl5ob6","sub10","10","3","rl","test","74","img/b_t_stripes.png","6","74","shape,pattern,color","151","1",""
"null","327042","HierDytdyl5ob6","sub10","10","3","feedback","test","null","","","na","","151","",""
"1149.5","328193","HierDytdyl5ob6","sub10","10","3","rl","test","72","img/p_t_stripes.png","5","72","shape,pattern,color","152","1",""
"null","329202","HierDytdyl5ob6","sub10","10","3","feedback","test","null","","","na","","152","",""
"964.9000000059605","330169","HierDytdyl5ob6","sub10","10","3","rl","test","74","img/b_t_stripes.png","6","74","shape,pattern,color","153","1",""
"null","331185","HierDytdyl5ob6","sub10","10","3","feedback","test","null","","","na","","153","",""
"790.7000000029802","331977","HierDytdyl5ob6","sub10","10","3","rl","test","76","img/b_t_check.png","8","76","shape,pattern,color","154","1",""
"null","332990","HierDytdyl5ob6","sub10","10","3","feedback","test","null","","","na","","154","",""
"911","333903","HierDytdyl5ob6","sub10","10","3","rl","test","68","img/p_s_check.png","3","68","shape,pattern,color","155","1",""
"null","334908","HierDytdyl5ob6","sub10","10","3","feedback","test","null","","","na","","155","",""
"807.2000000029802","335717","HierDytdyl5ob6","sub10","10","3","rl","test","65","img/p_s_stripes.png","1","65","shape,pattern,color","156","1",""
"null","336723","HierDytdyl5ob6","sub10","10","3","feedback","test","null","","","na","","156","",""
"490.6000000089407","337215","HierDytdyl5ob6","sub10","10","3","rl","test","72","img/p_t_stripes.png","5","72","shape,pattern,color","157","1",""
"null","338219","HierDytdyl5ob6","sub10","10","3","feedback","test","null","","","na","","157","",""
"1174","339394","HierDytdyl5ob6","sub10","10","3","rl","test","70","img/b_s_check.png","4","70","shape,pattern,color","158","1",""
"null","340402","HierDytdyl5ob6","sub10","10","3","feedback","test","null","","","na","","158","",""
"1148.8999999910593","341553","HierDytdyl5ob6","sub10","10","3","rl","test","65","img/p_s_stripes.png","1","65","shape,pattern,color","159","1",""
"null","342566","HierDytdyl5ob6","sub10","10","3","feedback","test","null","","","na","","159","",""
"955.6999999880791","343523","HierDytdyl5ob6","sub10","10","3","rl","test","75","img/p_t_check.png","7","75","shape,pattern,color","160","1",""
"null","344531","HierDytdyl5ob6","sub10","10","3","feedback","test","null","","","na","","160","",""
"908.9000000059605","345442","HierDytdyl5ob6","sub10","10","3","rl","test","76","img/b_t_check.png","8","76","shape,pattern,color","161","1",""
"null","346450","HierDytdyl5ob6","sub10","10","3","feedback","test","null","","","na","","161","",""
"809.7999999970198","347261","HierDytdyl5ob6","sub10","10","3","rl","test","76","img/b_t_check.png","8","76","shape,pattern,color","162","1",""
"null","348268","HierDytdyl5ob6","sub10","10","3","feedback","test","null","","","na","","162","",""
"1252.7000000029802","349522","HierDytdyl5ob6","sub10","10","3","rl","test","68","img/p_s_check.png","3","68","shape,pattern,color","163","1",""
"null","350534","HierDytdyl5ob6","sub10","10","3","feedback","test","null","","","na","","163","",""
"1600.2000000029802","352136","HierDytdyl5ob6","sub10","10","3","rl","test","83","img/b_s_stripes.png","2","83","shape,pattern,color","164","1",""
"null","353150","HierDytdyl5ob6","sub10","10","3","feedback","test","null","","","na","","164","",""
"1756.2000000029802","354908","HierDytdyl5ob6","sub10","10","3","rl","test","74","img/b_t_stripes.png","6","74","shape,pattern,color","165","1",""
"null","355914","HierDytdyl5ob6","sub10","10","3","feedback","test","null","","","na","","165","",""
"1218.7999999970198","357134","HierDytdyl5ob6","sub10","10","3","rl","test","83","img/b_s_stripes.png","2","83","shape,pattern,color","166","1",""
"null","358135","HierDytdyl5ob6","sub10","10","3","feedback","test","null","","","na","","166","",""
"816.5999999940395","358953","HierDytdyl5ob6","sub10","10","3","rl","test","70","img/b_s_check.png","4","70","shape,pattern,color","167","1",""
"null","359962","HierDytdyl5ob6","sub10","10","3","feedback","test","null","","","na","","167","",""
"918.1999999880791","360881","HierDytdyl5ob6","sub10","10","3","rl","test","72","img/p_t_stripes.png","5","72","shape,pattern,color","168","1",""
"null","361896","HierDytdyl5ob6","sub10","10","3","feedback","test","null","","","na","","168","",""
"929.5","362827","HierDytdyl5ob6","sub10","10","3","rl","test","83","img/b_s_stripes.png","2","83","shape,pattern,color","169","1",""
"null","363833","HierDytdyl5ob6","sub10","10","3","feedback","test","null","","","na","","169","",""
"1143.9000000059605","364978","HierDytdyl5ob6","sub10","10","3","rl","test","76","img/b_t_check.png","8","76","shape,pattern,color","170","1",""
"null","365986","HierDytdyl5ob6","sub10","10","3","feedback","test","null","","","na","","170","",""
"872.5","366860","HierDytdyl5ob6","sub10","10","3","rl","test","70","img/b_s_check.png","4","70","shape,pattern,color","171","1",""
"null","367866","HierDytdyl5ob6","sub10","10","3","feedback","test","null","","","na","","171","",""
"1004.4000000059605","368872","HierDytdyl5ob6","sub10","10","3","rl","test","65","img/p_s_stripes.png","1","65","shape,pattern,color","172","1",""
"null","369883","HierDytdyl5ob6","sub10","10","3","feedback","test","null","","","na","","172","",""
"655","370539","HierDytdyl5ob6","sub10","10","3","rl","test","72","img/p_t_stripes.png","5","72","shape,pattern,color","173","1",""
"null","371546","HierDytdyl5ob6","sub10","10","3","feedback","test","null","","","na","","173","",""
"866.3999999910593","372414","HierDytdyl5ob6","sub10","10","3","rl","test","75","img/p_t_check.png","7","75","shape,pattern,color","174","1",""
"null","373420","HierDytdyl5ob6","sub10","10","3","feedback","test","null","","","na","","174","",""
"1140.1000000089407","374562","HierDytdyl5ob6","sub10","10","3","rl","test","74","img/b_t_stripes.png","6","74","shape,pattern,color","175","1",""
"null","375569","HierDytdyl5ob6","sub10","10","3","feedback","test","null","","","na","","175","",""
"876.1999999880791","376446","HierDytdyl5ob6","sub10","10","3","rl","test","76","img/b_t_check.png","8","76","shape,pattern,color","176","1",""
"null","377453","HierDytdyl5ob6","sub10","10","3","feedback","test","null","","","na","","176","",""
"970.2999999970198","378425","HierDytdyl5ob6","sub10","10","3","rl","test","74","img/b_t_stripes.png","6","74","shape,pattern,color","177","1",""
"null","379432","HierDytdyl5ob6","sub10","10","3","feedback","test","null","","","na","","177","",""
"1092.9000000059605","380526","HierDytdyl5ob6","sub10","10","3","rl","test","68","img/p_s_check.png","3","68","shape,pattern,color","178","1",""
"null","381532","HierDytdyl5ob6","sub10","10","3","feedback","test","null","","","na","","178","",""
"1193.7999999970198","382727","HierDytdyl5ob6","sub10","10","3","rl","test","65","img/p_s_stripes.png","1","65","shape,pattern,color","179","1",""
"null","383732","HierDytdyl5ob6","sub10","10","3","feedback","test","null","","","na","","179","",""
"548.7000000029802","384282","HierDytdyl5ob6","sub10","10","3","rl","test","83","img/b_s_stripes.png","2","83","shape,pattern,color","180","1",""
"null","385288","HierDytdyl5ob6","sub10","10","3","feedback","test","null","","","na","","180","",""
"591.7000000029802","385882","HierDytdyl5ob6","sub10","10","3","rl","test","83","img/b_s_stripes.png","2","83","shape,pattern,color","181","1",""
"null","386888","HierDytdyl5ob6","sub10","10","3","feedback","test","null","","","na","","181","",""
"802","387692","HierDytdyl5ob6","sub10","10","3","rl","test","68","img/p_s_check.png","3","68","shape,pattern,color","182","1",""
"null","388698","HierDytdyl5ob6","sub10","10","3","feedback","test","null","","","na","","182","",""
"764.7999999970198","389464","HierDytdyl5ob6","sub10","10","3","rl","test","72","img/p_t_stripes.png","5","72","shape,pattern,color","183","1",""
"null","390475","HierDytdyl5ob6","sub10","10","3","feedback","test","null","","","na","","183","",""
"581","391057","HierDytdyl5ob6","sub10","10","3","rl","test","70","img/b_s_check.png","4","70","shape,pattern,color","184","1",""
"null","392066","HierDytdyl5ob6","sub10","10","3","feedback","test","null","","","na","","184","",""
"1235.2999999970198","393303","HierDytdyl5ob6","sub10","10","3","rl","test","65","img/p_s_stripes.png","1","65","shape,pattern,color","185","1",""
"null","394319","HierDytdyl5ob6","sub10","10","3","feedback","test","null","","","na","","185","",""
"906.7000000029802","395227","HierDytdyl5ob6","sub10","10","3","rl","test","75","img/p_t_check.png","7","75","shape,pattern,color","186","1",""
"null","396233","HierDytdyl5ob6","sub10","10","3","feedback","test","null","","","na","","186","",""
"971.6000000089407","397206","HierDytdyl5ob6","sub10","10","3","rl","test","68","img/p_s_check.png","3","68","shape,pattern,color","187","1",""
"null","398219","HierDytdyl5ob6","sub10","10","3","feedback","test","null","","","na","","187","",""
"566.0999999940395","398787","HierDytdyl5ob6","sub10","10","3","rl","test","70","img/b_s_check.png","4","70","shape,pattern,color","188","1",""
"null","399793","HierDytdyl5ob6","sub10","10","3","feedback","test","null","","","na","","188","",""
"1079.5","400874","HierDytdyl5ob6","sub10","10","3","rl","test","76","img/p_t_check.png","7","75","shape,pattern,color","189","0",""
"null","401881","HierDytdyl5ob6","sub10","10","3","feedback","test","null","","","na","","189","",""
"937.5999999940395","402820","HierDytdyl5ob6","sub10","10","3","rl","test","72","img/p_t_stripes.png","5","72","shape,pattern,color","190","1",""
"null","403826","HierDytdyl5ob6","sub10","10","3","feedback","test","null","","","na","","190","",""
"707.3999999910593","404535","HierDytdyl5ob6","sub10","10","3","rl","test","76","img/b_t_check.png","8","76","shape,pattern,color","191","1",""
"null","405550","HierDytdyl5ob6","sub10","10","3","feedback","test","null","","","na","","191","",""
"1812.1000000089407","407364","HierDytdyl5ob6","sub10","10","3","rl","test","74","img/b_t_stripes.png","6","74","shape,pattern,color","192","1",""
"null","408371","HierDytdyl5ob6","sub10","10","3","feedback","test","null","","","na","","192","",""
"805.6999999880791","409179","HierDytdyl5ob6","sub10","10","3","rl","test","65","img/p_s_stripes.png","1","65","shape,pattern,color","193","1",""
"null","410188","HierDytdyl5ob6","sub10","10","3","feedback","test","null","","","na","","193","",""
"572","410761","HierDytdyl5ob6","sub10","10","3","rl","test","83","img/b_s_stripes.png","2","83","shape,pattern,color","194","1",""
"null","411770","HierDytdyl5ob6","sub10","10","3","feedback","test","null","","","na","","194","",""
"1040.2000000029802","412812","HierDytdyl5ob6","sub10","10","3","rl","test","72","img/p_t_stripes.png","5","72","shape,pattern,color","195","1",""
"null","413817","HierDytdyl5ob6","sub10","10","3","feedback","test","null","","","na","","195","",""
"1373.7999999970198","415193","HierDytdyl5ob6","sub10","10","3","rl","test","68","img/p_s_check.png","3","68","shape,pattern,color","196","1",""
"null","416198","HierDytdyl5ob6","sub10","10","3","feedback","test","null","","","na","","196","",""
"547.7000000029802","416747","HierDytdyl5ob6","sub10","10","3","rl","test","70","img/b_s_check.png","4","70","shape,pattern,color","197","1",""
"null","417753","HierDytdyl5ob6","sub10","10","3","feedback","test","null","","","na","","197","",""
"516.4000000059605","418271","HierDytdyl5ob6","sub10","10","3","rl","test","70","img/b_s_check.png","4","70","shape,pattern,color","198","1",""
"null","419279","HierDytdyl5ob6","sub10","10","3","feedback","test","null","","","na","","198","",""
"983.9000000059605","420265","HierDytdyl5ob6","sub10","10","3","rl","test","76","img/b_t_check.png","8","76","shape,pattern,color","199","1",""
"null","421271","HierDytdyl5ob6","sub10","10","3","feedback","test","null","","","na","","199","",""
"820.5","422093","HierDytdyl5ob6","sub10","10","3","rl","test","75","img/p_t_check.png","7","75","shape,pattern,color","200","1",""
"null","423096","HierDytdyl5ob6","sub10","10","3","feedback","test","null","","","na","","200","",""
"1129.2999999970198","424227","HierDytdyl5ob6","sub10","10","3","rl","test","65","img/b_s_stripes.png","2","83","shape,pattern,color","201","0",""
"null","425233","HierDytdyl5ob6","sub10","10","3","feedback","test","null","","","na","","201","",""
"1475.5","426710","HierDytdyl5ob6","sub10","10","3","rl","test","74","img/b_t_stripes.png","6","74","shape,pattern,color","202","1",""
"null","427725","HierDytdyl5ob6","sub10","10","3","feedback","test","null","","","na","","202","",""
"977.0999999940395","428704","HierDytdyl5ob6","sub10","10","3","rl","test","75","img/p_t_check.png","7","75","shape,pattern,color","203","1",""
"null","429710","HierDytdyl5ob6","sub10","10","3","feedback","test","null","","","na","","203","",""
"932.5","430644","HierDytdyl5ob6","sub10","10","3","rl","test","74","img/b_t_stripes.png","6","74","shape,pattern,color","204","1",""
"null","431651","HierDytdyl5ob6","sub10","10","3","feedback","test","null","","","na","","204","",""
"1017.8999999910593","432670","HierDytdyl5ob6","sub10","10","3","rl","test","65","img/p_s_stripes.png","1","65","shape,pattern,color","205","1",""
"null","433680","HierDytdyl5ob6","sub10","10","3","feedback","test","null","","","na","","205","",""
"1456.2999999970198","435138","HierDytdyl5ob6","sub10","10","3","rl","test","76","img/b_t_check.png","8","76","shape,pattern,color","206","1",""
"null","436145","HierDytdyl5ob6","sub10","10","3","feedback","test","null","","","na","","206","",""
"2305.7000000029802","438452","HierDytdyl5ob6","sub10","10","3","rl","test","74","img/p_t_stripes.png","5","72","shape,pattern,color","207","0",""
"null","439455","HierDytdyl5ob6","sub10","10","3","feedback","test","null","","","na","","207","",""
"796.2000000029802","440252","HierDytdyl5ob6","sub10","10","3","rl","test","72","img/p_t_stripes.png","5","72","shape,pattern,color","208","1",""
"null","441258","HierDytdyl5ob6","sub10","10","3","feedback","test","null","","","na","","208","",""
"805","442064","HierDytdyl5ob6","sub10","10","3","rl","test","75","img/p_t_check.png","7","75","shape,pattern,color","209","1",""
"null","443072","HierDytdyl5ob6","sub10","10","3","feedback","test","null","","","na","","209","",""
"1024.7000000029802","444098","HierDytdyl5ob6","sub10","10","3","rl","test","68","img/p_s_check.png","3","68","shape,pattern,color","210","1",""
"null","445106","HierDytdyl5ob6","sub10","10","3","feedback","test","null","","","na","","210","",""
"731.7999999970198","445840","HierDytdyl5ob6","sub10","10","3","rl","test","70","img/b_s_check.png","4","70","shape,pattern,color","211","1",""
"null","446846","HierDytdyl5ob6","sub10","10","3","feedback","test","null","","","na","","211","",""
"1122.4000000059605","447969","HierDytdyl5ob6","sub10","10","3","rl","test","76","img/b_t_check.png","8","76","shape,pattern,color","212","1",""
"null","448975","HierDytdyl5ob6","sub10","10","3","feedback","test","null","","","na","","212","",""
"674.6999999880791","449652","HierDytdyl5ob6","sub10","10","3","rl","test","65","img/p_s_stripes.png","1","65","shape,pattern,color","213","1",""
"null","450663","HierDytdyl5ob6","sub10","10","3","feedback","test","null","","","na","","213","",""
"907.7999999970198","451572","HierDytdyl5ob6","sub10","10","3","rl","test","74","img/b_t_stripes.png","6","74","shape,pattern,color","214","1",""
"null","452586","HierDytdyl5ob6","sub10","10","3","feedback","test","null","","","na","","214","",""
"734.1000000089407","453322","HierDytdyl5ob6","sub10","10","3","rl","test","68","img/p_s_check.png","3","68","shape,pattern,color","215","1",""
"null","454326","HierDytdyl5ob6","sub10","10","3","feedback","test","null","","","na","","215","",""
"835.5999999940395","455163","HierDytdyl5ob6","sub10","10","3","rl","test","65","img/b_s_stripes.png","2","83","shape,pattern,color","216","0",""
"null","456168","HierDytdyl5ob6","sub10","10","3","feedback","test","null","","","na","","216","",""
"545.8999999910593","456715","HierDytdyl5ob6","sub10","10","3","rl","test","65","img/p_s_stripes.png","1","65","shape,pattern,color","217","1",""
"null","457721","HierDytdyl5ob6","sub10","10","3","feedback","test","null","","","na","","217","",""
"433.5","458156","HierDytdyl5ob6","sub10","10","3","rl","test","83","img/b_s_stripes.png","2","83","shape,pattern,color","218","1",""
"null","459169","HierDytdyl5ob6","sub10","10","3","feedback","test","null","","","na","","218","",""
"1639.7000000029802","460809","HierDytdyl5ob6","sub10","10","3","rl","test","72","img/p_t_stripes.png","5","72","shape,pattern,color","219","1",""
"null","461816","HierDytdyl5ob6","sub10","10","3","feedback","test","null","","","na","","219","",""
"864.1000000089407","462681","HierDytdyl5ob6","sub10","10","3","rl","test","70","img/b_s_check.png","4","70","shape,pattern,color","220","1",""
"null","463688","HierDytdyl5ob6","sub10","10","3","feedback","test","null","","","na","","220","",""
"1636.6000000089407","465326","HierDytdyl5ob6","sub10","10","3","rl","test","83","img/b_s_stripes.png","2","83","shape,pattern,color","221","1",""
"null","466333","HierDytdyl5ob6","sub10","10","3","feedback","test","null","","","na","","221","",""
"977.2999999970198","467312","HierDytdyl5ob6","sub10","10","3","rl","test","68","img/p_s_check.png","3","68","shape,pattern,color","222","1",""
"null","468318","HierDytdyl5ob6","sub10","10","3","feedback","test","null","","","na","","222","",""
"1280.7999999970198","469600","HierDytdyl5ob6","sub10","10","3","rl","test","75","img/p_t_check.png","7","75","shape,pattern,color","223","1",""
"null","470606","HierDytdyl5ob6","sub10","10","3","feedback","test","null","","","na","","223","",""
"996.7000000029802","471604","HierDytdyl5ob6","sub10","10","3","rl","test","74","img/b_t_stripes.png","6","74","shape,pattern,color","224","1",""
"null","472614","HierDytdyl5ob6","sub10","10","3","feedback","test","null","","","na","","224","",""
"400.20000000298023","473016","HierDytdyl5ob6","sub10","10","3","rl","test","74","img/b_t_stripes.png","6","74","shape,pattern,color","225","1",""
"null","474022","HierDytdyl5ob6","sub10","10","3","feedback","test","null","","","na","","225","",""
"742.7000000029802","474766","HierDytdyl5ob6","sub10","10","3","rl","test","75","img/b_t_check.png","8","76","shape,pattern,color","226","0",""
"null","475776","HierDytdyl5ob6","sub10","10","3","feedback","test","null","","","na","","226","",""
"741.2999999970198","476519","HierDytdyl5ob6","sub10","10","3","rl","test","76","img/b_t_check.png","8","76","shape,pattern,color","227","1",""
"null","477525","HierDytdyl5ob6","sub10","10","3","feedback","test","null","","","na","","227","",""
"814.2000000029802","478341","HierDytdyl5ob6","sub10","10","3","rl","test","75","img/p_t_check.png","7","75","shape,pattern,color","228","1",""
"null","479353","HierDytdyl5ob6","sub10","10","3","feedback","test","null","","","na","","228","",""
"770.5","480125","HierDytdyl5ob6","sub10","10","3","rl","test","65","img/p_s_stripes.png","1","65","shape,pattern,color","229","1",""
"null","481136","HierDytdyl5ob6","sub10","10","3","feedback","test","null","","","na","","229","",""
"820.6000000089407","481958","HierDytdyl5ob6","sub10","10","3","rl","test","68","img/p_s_check.png","3","68","shape,pattern,color","230","1",""
"null","482971","HierDytdyl5ob6","sub10","10","3","feedback","test","null","","","na","","230","",""
"780.7999999970198","483754","HierDytdyl5ob6","sub10","10","3","rl","test","70","img/b_s_check.png","4","70","shape,pattern,color","231","1",""
"null","484759","HierDytdyl5ob6","sub10","10","3","feedback","test","null","","","na","","231","",""
"1575.7000000029802","486336","HierDytdyl5ob6","sub10","10","3","rl","test","72","img/p_t_stripes.png","5","72","shape,pattern,color","232","1",""
"null","487343","HierDytdyl5ob6","sub10","10","3","feedback","test","null","","","na","","232","",""
"634.6000000089407","487979","HierDytdyl5ob6","sub10","10","3","rl","test","76","img/b_t_check.png","8","76","shape,pattern,color","233","1",""
"null","488990","HierDytdyl5ob6","sub10","10","3","feedback","test","null","","","na","","233","",""
"1810.1000000089407","490801","HierDytdyl5ob6","sub10","10","3","rl","test","72","img/p_t_stripes.png","5","72","shape,pattern,color","234","1",""
"null","491809","HierDytdyl5ob6","sub10","10","3","feedback","test","null","","","na","","234","",""
"1320.3999999910593","493131","HierDytdyl5ob6","sub10","10","3","rl","test","70","img/b_s_check.png","4","70","shape,pattern,color","235","1",""
"null","494140","HierDytdyl5ob6","sub10","10","3","feedback","test","null","","","na","","235","",""
"1342","495484","HierDytdyl5ob6","sub10","10","3","rl","test","65","img/b_s_stripes.png","2","83","shape,pattern,color","236","0",""
"null","496499","HierDytdyl5ob6","sub10","10","3","feedback","test","null","","","na","","236","",""
"1316.2000000029802","497817","HierDytdyl5ob6","sub10","10","3","rl","test","75","img/p_t_check.png","7","75","shape,pattern,color","237","1",""
"null","498821","HierDytdyl5ob6","sub10","10","3","feedback","test","null","","","na","","237","",""
"961.0999999940395","499784","HierDytdyl5ob6","sub10","10","3","rl","test","70","img/b_s_check.png","4","70","shape,pattern,color","238","1",""
"null","500789","HierDytdyl5ob6","sub10","10","3","feedback","test","null","","","na","","238","",""
"1139.4000000059605","501930","HierDytdyl5ob6","sub10","10","3","rl","test","65","img/p_s_stripes.png","1","65","shape,pattern,color","239","1",""
"null","502931","HierDytdyl5ob6","sub10","10","3","feedback","test","null","","","na","","239","",""
"1409.6000000089407","504342","HierDytdyl5ob6","sub10","10","3","rl","test","74","img/b_t_stripes.png","6","74","shape,pattern,color","240","1",""
"null","505349","HierDytdyl5ob6","sub10","10","3","feedback","test","null","","","na","","240","",""
"1509.5","506861","HierDytdyl5ob6","sub10","10","3","rl","test","68","img/p_s_check.png","3","68","shape,pattern,color","241","1",""
"null","507868","HierDytdyl5ob6","sub10","10","3","feedback","test","null","","","na","","241","",""
"1063.7999999970198","508934","HierDytdyl5ob6","sub10","10","3","rl","test","83","img/b_s_stripes.png","2","83","shape,pattern,color","242","1",""
"null","509944","HierDytdyl5ob6","sub10","10","3","feedback","test","null","","","na","","242","",""
"926.5","510872","HierDytdyl5ob6","sub10","10","3","rl","test","65","img/p_s_stripes.png","1","65","shape,pattern,color","243","1",""
"null","511877","HierDytdyl5ob6","sub10","10","3","feedback","test","null","","","na","","243","",""
"1264.5999999940395","513143","HierDytdyl5ob6","sub10","10","3","rl","test","68","img/p_s_check.png","3","68","shape,pattern,color","244","1",""
"null","514151","HierDytdyl5ob6","sub10","10","3","feedback","test","null","","","na","","244","",""
"978.7999999970198","515131","HierDytdyl5ob6","sub10","10","3","rl","test","76","img/p_t_check.png","7","75","shape,pattern,color","245","0",""
"null","516144","HierDytdyl5ob6","sub10","10","3","feedback","test","null","","","na","","245","",""
"814.3999999910593","516959","HierDytdyl5ob6","sub10","10","3","rl","test","72","img/p_t_stripes.png","5","72","shape,pattern,color","246","1",""
"null","517967","HierDytdyl5ob6","sub10","10","3","feedback","test","null","","","na","","246","",""
"835.7999999970198","518805","HierDytdyl5ob6","sub10","10","3","rl","test","74","img/b_t_stripes.png","6","74","shape,pattern,color","247","1",""
"null","519812","HierDytdyl5ob6","sub10","10","3","feedback","test","null","","","na","","247","",""
"1310.199999988079","521124","HierDytdyl5ob6","sub10","10","3","rl","test","76","img/b_t_check.png","8","76","shape,pattern,color","248","1",""
"null","522128","HierDytdyl5ob6","sub10","10","3","feedback","test","null","","","na","","248","",""
"17919.69999998808","540070","HierDytdyl5ob6","sub10","10","3","","","","","","","","","","{""Q0"":""6.5""}"
"65022.79999999702","605094","HierDytdyl5ob6","sub10","10","3","","","","","","","","","","{""Q0"":""I have associated the squares with the left keys while the triangles are the right keys. Additionally the patterns follow the same order on each side of the keyboard.  ""}"
"14595.29999999702","619689","HierDytdyl5ob6","sub10","10","3","","","","","","","","","",""
