"rt","time_elapsed","subject","subID","group","day","trialType","phase","key_press","stim","stimNum","corrresp","hierarchy","trialNum","corr","responses"
"10310","10312","HierDyw22wscc6","sub02","02","5","","","","","","","","","",""
"","12174","HierDyw22wscc6","sub02","02","5","fullscreen","","","","","","","","",""
"3380.2000000178814","15556","HierDyw22wscc6","sub02","02","5","","prac","","","","","","","",""
"865.5","16426","HierDyw22wscc6","sub02","02","5","","","32","","","","","","",""
"614.4000000059605","17042","HierDyw22wscc6","sub02","02","5","","prac","","","","","","","",""
"886.1999999880791","17931","HierDyw22wscc6","sub02","02","5","rl","test","70","img/p_d_diag.png","4","70","color,shape,pattern","1","1",""
"null","18939","HierDyw22wscc6","sub02","02","5","feedback","test","null","","","na","","1","",""
"992.8000000119209","19934","HierDyw22wscc6","sub02","02","5","rl","test","74","img/o_t_diag.png","6","74","color,shape,pattern","2","1",""
"null","20942","HierDyw22wscc6","sub02","02","5","feedback","test","null","","","na","","2","",""
"1093.800000011921","22038","HierDyw22wscc6","sub02","02","5","rl","test","65","img/o_t_check.png","5","72","color,shape,pattern","3","0",""
"null","23044","HierDyw22wscc6","sub02","02","5","feedback","test","null","","","na","","3","",""
"823.5","23871","HierDyw22wscc6","sub02","02","5","rl","test","83","img/p_t_diag.png","2","83","color,shape,pattern","4","1",""
"null","24878","HierDyw22wscc6","sub02","02","5","feedback","test","null","","","na","","4","",""
"761.2999999821186","25641","HierDyw22wscc6","sub02","02","5","rl","test","65","img/p_t_check.png","1","65","color,shape,pattern","5","1",""
"null","26643","HierDyw22wscc6","sub02","02","5","feedback","test","null","","","na","","5","",""
"1520.7000000178814","28165","HierDyw22wscc6","sub02","02","5","rl","test","68","img/o_d_check.png","7","75","color,shape,pattern","6","0",""
"null","29172","HierDyw22wscc6","sub02","02","5","feedback","test","null","","","na","","6","",""
"1126.4000000059605","30300","HierDyw22wscc6","sub02","02","5","rl","test","83","img/p_t_diag.png","2","83","color,shape,pattern","7","1",""
"null","31307","HierDyw22wscc6","sub02","02","5","feedback","test","null","","","na","","7","",""
"1363.4000000059605","32672","HierDyw22wscc6","sub02","02","5","rl","test","68","img/p_d_check.png","3","68","color,shape,pattern","8","1",""
"null","33675","HierDyw22wscc6","sub02","02","5","feedback","test","null","","","na","","8","",""
"727.2000000178814","34404","HierDyw22wscc6","sub02","02","5","rl","test","76","img/o_d_diag.png","8","76","color,shape,pattern","9","1",""
"null","35409","HierDyw22wscc6","sub02","02","5","feedback","test","null","","","na","","9","",""
"529.7000000178814","35941","HierDyw22wscc6","sub02","02","5","rl","test","76","img/o_d_diag.png","8","76","color,shape,pattern","10","1",""
"null","36944","HierDyw22wscc6","sub02","02","5","feedback","test","null","","","na","","10","",""
"981.5","37927","HierDyw22wscc6","sub02","02","5","rl","test","72","img/o_t_check.png","5","72","color,shape,pattern","11","1",""
"null","38932","HierDyw22wscc6","sub02","02","5","feedback","test","null","","","na","","11","",""
"694.8000000119209","39628","HierDyw22wscc6","sub02","02","5","rl","test","70","img/p_d_diag.png","4","70","color,shape,pattern","12","1",""
"null","40632","HierDyw22wscc6","sub02","02","5","feedback","test","null","","","na","","12","",""
"955.6000000238419","41589","HierDyw22wscc6","sub02","02","5","rl","test","68","img/p_d_check.png","3","68","color,shape,pattern","13","1",""
"null","42595","HierDyw22wscc6","sub02","02","5","feedback","test","null","","","na","","13","",""
"944.0999999940395","43541","HierDyw22wscc6","sub02","02","5","rl","test","75","img/o_d_check.png","7","75","color,shape,pattern","14","1",""
"null","44544","HierDyw22wscc6","sub02","02","5","feedback","test","null","","","na","","14","",""
"1429.800000011921","45975","HierDyw22wscc6","sub02","02","5","rl","test","74","img/o_t_diag.png","6","74","color,shape,pattern","15","1",""
"null","46982","HierDyw22wscc6","sub02","02","5","feedback","test","null","","","na","","15","",""
"615.6999999880791","47599","HierDyw22wscc6","sub02","02","5","rl","test","65","img/p_t_check.png","1","65","color,shape,pattern","16","1",""
"null","48605","HierDyw22wscc6","sub02","02","5","feedback","test","null","","","na","","16","",""
"1557","50164","HierDyw22wscc6","sub02","02","5","rl","test","74","img/o_t_diag.png","6","74","color,shape,pattern","17","1",""
"null","51167","HierDyw22wscc6","sub02","02","5","feedback","test","null","","","na","","17","",""
"647.5","51816","HierDyw22wscc6","sub02","02","5","rl","test","70","img/p_d_diag.png","4","70","color,shape,pattern","18","1",""
"null","52823","HierDyw22wscc6","sub02","02","5","feedback","test","null","","","na","","18","",""
"653.0999999940395","53477","HierDyw22wscc6","sub02","02","5","rl","test","83","img/p_t_diag.png","2","83","color,shape,pattern","19","1",""
"null","54483","HierDyw22wscc6","sub02","02","5","feedback","test","null","","","na","","19","",""
"674.9000000059605","55159","HierDyw22wscc6","sub02","02","5","rl","test","65","img/p_t_check.png","1","65","color,shape,pattern","20","1",""
"null","56163","HierDyw22wscc6","sub02","02","5","feedback","test","null","","","na","","20","",""
"997.1999999880791","57162","HierDyw22wscc6","sub02","02","5","rl","test","72","img/o_t_check.png","5","72","color,shape,pattern","21","1",""
"null","58168","HierDyw22wscc6","sub02","02","5","feedback","test","null","","","na","","21","",""
"1211.5","59381","HierDyw22wscc6","sub02","02","5","rl","test","68","img/p_d_check.png","3","68","color,shape,pattern","22","1",""
"null","60388","HierDyw22wscc6","sub02","02","5","feedback","test","null","","","na","","22","",""
"840.3000000119209","61230","HierDyw22wscc6","sub02","02","5","rl","test","75","img/o_d_check.png","7","75","color,shape,pattern","23","1",""
"null","62232","HierDyw22wscc6","sub02","02","5","feedback","test","null","","","na","","23","",""
"644.4000000059605","62878","HierDyw22wscc6","sub02","02","5","rl","test","76","img/o_d_diag.png","8","76","color,shape,pattern","24","1",""
"null","63882","HierDyw22wscc6","sub02","02","5","feedback","test","null","","","na","","24","",""
"530.0999999940395","64414","HierDyw22wscc6","sub02","02","5","rl","test","76","img/o_d_diag.png","8","76","color,shape,pattern","25","1",""
"null","65418","HierDyw22wscc6","sub02","02","5","feedback","test","null","","","na","","25","",""
"1775.0999999940395","67195","HierDyw22wscc6","sub02","02","5","rl","test","83","img/p_t_diag.png","2","83","color,shape,pattern","26","1",""
"null","68202","HierDyw22wscc6","sub02","02","5","feedback","test","null","","","na","","26","",""
"708.8000000119209","68913","HierDyw22wscc6","sub02","02","5","rl","test","70","img/o_d_diag.png","8","76","color,shape,pattern","27","0",""
"null","69918","HierDyw22wscc6","sub02","02","5","feedback","test","null","","","na","","27","",""
"743.7999999821186","70664","HierDyw22wscc6","sub02","02","5","rl","test","68","img/p_d_check.png","3","68","color,shape,pattern","28","1",""
"null","71671","HierDyw22wscc6","sub02","02","5","feedback","test","null","","","na","","28","",""
"681.6999999880791","72354","HierDyw22wscc6","sub02","02","5","rl","test","76","img/p_d_diag.png","4","70","color,shape,pattern","29","0",""
"null","73361","HierDyw22wscc6","sub02","02","5","feedback","test","null","","","na","","29","",""
"934.4000000059605","74298","HierDyw22wscc6","sub02","02","5","rl","test","75","img/o_d_check.png","7","75","color,shape,pattern","30","1",""
"null","75301","HierDyw22wscc6","sub02","02","5","feedback","test","null","","","na","","30","",""
"1064.9000000059605","76367","HierDyw22wscc6","sub02","02","5","rl","test","74","img/o_t_diag.png","6","74","color,shape,pattern","31","1",""
"null","77375","HierDyw22wscc6","sub02","02","5","feedback","test","null","","","na","","31","",""
"644","78021","HierDyw22wscc6","sub02","02","5","rl","test","65","img/p_t_check.png","1","65","color,shape,pattern","32","1",""
"null","79022","HierDyw22wscc6","sub02","02","5","feedback","test","null","","","na","","32","",""
"1100.7999999821186","80125","HierDyw22wscc6","sub02","02","5","rl","test","75","img/o_d_check.png","7","75","color,shape,pattern","33","1",""
"null","81131","HierDyw22wscc6","sub02","02","5","feedback","test","null","","","na","","33","",""
"871.4000000059605","82004","HierDyw22wscc6","sub02","02","5","rl","test","68","img/o_t_check.png","5","72","color,shape,pattern","34","0",""
"null","83007","HierDyw22wscc6","sub02","02","5","feedback","test","null","","","na","","34","",""
"1809.800000011921","84819","HierDyw22wscc6","sub02","02","5","rl","test","83","img/p_t_check.png","1","65","color,shape,pattern","35","0",""
"null","85825","HierDyw22wscc6","sub02","02","5","feedback","test","null","","","na","","35","",""
"1079.9000000059605","86906","HierDyw22wscc6","sub02","02","5","rl","test","83","img/o_t_diag.png","6","74","color,shape,pattern","36","0",""
"null","87909","HierDyw22wscc6","sub02","02","5","feedback","test","null","","","na","","36","",""
"911.5","88822","HierDyw22wscc6","sub02","02","5","rl","test","70","img/p_d_diag.png","4","70","color,shape,pattern","37","1",""
"null","89827","HierDyw22wscc6","sub02","02","5","feedback","test","null","","","na","","37","",""
"1903.699999988079","91733","HierDyw22wscc6","sub02","02","5","rl","test","74","img/o_t_check.png","5","72","color,shape,pattern","38","0",""
"null","92740","HierDyw22wscc6","sub02","02","5","feedback","test","null","","","na","","38","",""
"1088.9000000059605","93831","HierDyw22wscc6","sub02","02","5","rl","test","70","img/p_d_diag.png","4","70","color,shape,pattern","39","1",""
"null","94837","HierDyw22wscc6","sub02","02","5","feedback","test","null","","","na","","39","",""
"1195.7000000178814","96035","HierDyw22wscc6","sub02","02","5","rl","test","83","img/p_t_diag.png","2","83","color,shape,pattern","40","1",""
"null","97042","HierDyw22wscc6","sub02","02","5","feedback","test","null","","","na","","40","",""
"1460","98504","HierDyw22wscc6","sub02","02","5","rl","test","68","img/p_d_check.png","3","68","color,shape,pattern","41","1",""
"null","99509","HierDyw22wscc6","sub02","02","5","feedback","test","null","","","na","","41","",""
"765.3000000119209","100276","HierDyw22wscc6","sub02","02","5","rl","test","76","img/o_d_diag.png","8","76","color,shape,pattern","42","1",""
"null","101282","HierDyw22wscc6","sub02","02","5","feedback","test","null","","","na","","42","",""
"1286.0999999940395","102570","HierDyw22wscc6","sub02","02","5","rl","test","75","img/o_d_check.png","7","75","color,shape,pattern","43","1",""
"null","103574","HierDyw22wscc6","sub02","02","5","feedback","test","null","","","na","","43","",""
"1057.800000011921","104633","HierDyw22wscc6","sub02","02","5","rl","test","72","img/o_t_diag.png","6","74","color,shape,pattern","44","0",""
"null","105636","HierDyw22wscc6","sub02","02","5","feedback","test","null","","","na","","44","",""
"1624","107262","HierDyw22wscc6","sub02","02","5","rl","test","65","img/p_t_check.png","1","65","color,shape,pattern","45","1",""
"null","108267","HierDyw22wscc6","sub02","02","5","feedback","test","null","","","na","","45","",""
"691.8000000119209","108961","HierDyw22wscc6","sub02","02","5","rl","test","65","img/p_t_check.png","1","65","color,shape,pattern","46","1",""
"null","109963","HierDyw22wscc6","sub02","02","5","feedback","test","null","","","na","","46","",""
"865.9000000059605","110831","HierDyw22wscc6","sub02","02","5","rl","test","72","img/o_t_check.png","5","72","color,shape,pattern","47","1",""
"null","111835","HierDyw22wscc6","sub02","02","5","feedback","test","null","","","na","","47","",""
"888.3000000119209","112725","HierDyw22wscc6","sub02","02","5","rl","test","75","img/p_d_check.png","3","68","color,shape,pattern","48","0",""
"null","113731","HierDyw22wscc6","sub02","02","5","feedback","test","null","","","na","","48","",""
"1611.2999999821186","115344","HierDyw22wscc6","sub02","02","5","rl","test","83","img/p_t_diag.png","2","83","color,shape,pattern","49","1",""
"null","116351","HierDyw22wscc6","sub02","02","5","feedback","test","null","","","na","","49","",""
"1007","117360","HierDyw22wscc6","sub02","02","5","rl","test","68","img/p_d_check.png","3","68","color,shape,pattern","50","1",""
"null","118364","HierDyw22wscc6","sub02","02","5","feedback","test","null","","","na","","50","",""
"1202.3999999761581","119568","HierDyw22wscc6","sub02","02","5","rl","test","72","img/o_t_check.png","5","72","color,shape,pattern","51","1",""
"null","120575","HierDyw22wscc6","sub02","02","5","feedback","test","null","","","na","","51","",""
"1319.699999988079","121896","HierDyw22wscc6","sub02","02","5","rl","test","65","img/p_t_diag.png","2","83","color,shape,pattern","52","0",""
"null","122903","HierDyw22wscc6","sub02","02","5","feedback","test","null","","","na","","52","",""
"711.8000000119209","123616","HierDyw22wscc6","sub02","02","5","rl","test","70","img/p_d_diag.png","4","70","color,shape,pattern","53","1",""
"null","124621","HierDyw22wscc6","sub02","02","5","feedback","test","null","","","na","","53","",""
"1173.8999999761581","125796","HierDyw22wscc6","sub02","02","5","rl","test","76","img/o_d_diag.png","8","76","color,shape,pattern","54","1",""
"null","126803","HierDyw22wscc6","sub02","02","5","feedback","test","null","","","na","","54","",""
"1156.5","127961","HierDyw22wscc6","sub02","02","5","rl","test","75","img/o_t_diag.png","6","74","color,shape,pattern","55","0",""
"null","128964","HierDyw22wscc6","sub02","02","5","feedback","test","null","","","na","","55","",""
"782.1999999880791","129747","HierDyw22wscc6","sub02","02","5","rl","test","74","img/o_t_diag.png","6","74","color,shape,pattern","56","1",""
"null","130754","HierDyw22wscc6","sub02","02","5","feedback","test","null","","","na","","56","",""
"728.6999999880791","131485","HierDyw22wscc6","sub02","02","5","rl","test","83","img/p_t_diag.png","2","83","color,shape,pattern","57","1",""
"null","132491","HierDyw22wscc6","sub02","02","5","feedback","test","null","","","na","","57","",""
"1841.5","134335","HierDyw22wscc6","sub02","02","5","rl","test","75","img/o_d_check.png","7","75","color,shape,pattern","58","1",""
"null","135342","HierDyw22wscc6","sub02","02","5","feedback","test","null","","","na","","58","",""
"1228.199999988079","136571","HierDyw22wscc6","sub02","02","5","rl","test","70","img/p_d_diag.png","4","70","color,shape,pattern","59","1",""
"null","137578","HierDyw22wscc6","sub02","02","5","feedback","test","null","","","na","","59","",""
"1552.2999999821186","139132","HierDyw22wscc6","sub02","02","5","rl","test","68","img/p_d_check.png","3","68","color,shape,pattern","60","1",""
"null","140138","HierDyw22wscc6","sub02","02","5","feedback","test","null","","","na","","60","",""
"1743.3999999761581","141883","HierDyw22wscc6","sub02","02","5","rl","test","65","img/p_t_check.png","1","65","color,shape,pattern","61","1",""
"null","142886","HierDyw22wscc6","sub02","02","5","feedback","test","null","","","na","","61","",""
"1329.9000000059605","144218","HierDyw22wscc6","sub02","02","5","rl","test","76","img/o_d_diag.png","8","76","color,shape,pattern","62","1",""
"null","145225","HierDyw22wscc6","sub02","02","5","feedback","test","null","","","na","","62","",""
"1449.0999999940395","146675","HierDyw22wscc6","sub02","02","5","rl","test","65","img/p_t_check.png","1","65","color,shape,pattern","63","1",""
"null","147682","HierDyw22wscc6","sub02","02","5","feedback","test","null","","","na","","63","",""
"1079.4000000059605","148763","HierDyw22wscc6","sub02","02","5","rl","test","72","img/o_t_check.png","5","72","color,shape,pattern","64","1",""
"null","149769","HierDyw22wscc6","sub02","02","5","feedback","test","null","","","na","","64","",""
"1867.199999988079","151638","HierDyw22wscc6","sub02","02","5","rl","test","68","img/o_d_check.png","7","75","color,shape,pattern","65","0",""
"null","152645","HierDyw22wscc6","sub02","02","5","feedback","test","null","","","na","","65","",""
"2434.2999999821186","155081","HierDyw22wscc6","sub02","02","5","rl","test","83","img/p_d_check.png","3","68","color,shape,pattern","66","0",""
"null","156086","HierDyw22wscc6","sub02","02","5","feedback","test","null","","","na","","66","",""
"1638.5","157727","HierDyw22wscc6","sub02","02","5","rl","test","65","img/o_t_check.png","5","72","color,shape,pattern","67","0",""
"null","158732","HierDyw22wscc6","sub02","02","5","feedback","test","null","","","na","","67","",""
"1808.800000011921","160543","HierDyw22wscc6","sub02","02","5","rl","test","83","img/p_t_diag.png","2","83","color,shape,pattern","68","1",""
"null","161547","HierDyw22wscc6","sub02","02","5","feedback","test","null","","","na","","68","",""
"1488.5","163037","HierDyw22wscc6","sub02","02","5","rl","test","75","img/o_d_check.png","7","75","color,shape,pattern","69","1",""
"null","164042","HierDyw22wscc6","sub02","02","5","feedback","test","null","","","na","","69","",""
"null","166545","HierDyw22wscc6","sub02","02","5","rl","test","null","img/o_t_diag.png","6","74","color,shape,pattern","70","0",""
"null","167548","HierDyw22wscc6","sub02","02","5","feedback","test","null","","","na","","70","",""
"946","168496","HierDyw22wscc6","sub02","02","5","rl","test","70","img/p_d_diag.png","4","70","color,shape,pattern","71","1",""
"null","169503","HierDyw22wscc6","sub02","02","5","feedback","test","null","","","na","","71","",""
"684.3999999761581","170189","HierDyw22wscc6","sub02","02","5","rl","test","72","img/o_t_check.png","5","72","color,shape,pattern","72","1",""
"null","171196","HierDyw22wscc6","sub02","02","5","feedback","test","null","","","na","","72","",""
"638.2999999821186","171836","HierDyw22wscc6","sub02","02","5","rl","test","76","img/o_d_diag.png","8","76","color,shape,pattern","73","1",""
"null","172843","HierDyw22wscc6","sub02","02","5","feedback","test","null","","","na","","73","",""
"561.7000000178814","173407","HierDyw22wscc6","sub02","02","5","rl","test","76","img/o_d_diag.png","8","76","color,shape,pattern","74","1",""
"null","174409","HierDyw22wscc6","sub02","02","5","feedback","test","null","","","na","","74","",""
"663.5999999940395","175075","HierDyw22wscc6","sub02","02","5","rl","test","70","img/p_d_diag.png","4","70","color,shape,pattern","75","1",""
"null","176082","HierDyw22wscc6","sub02","02","5","feedback","test","null","","","na","","75","",""
"1045.5999999940395","177130","HierDyw22wscc6","sub02","02","5","rl","test","74","img/o_t_diag.png","6","74","color,shape,pattern","76","1",""
"null","178133","HierDyw22wscc6","sub02","02","5","feedback","test","null","","","na","","76","",""
"860.1000000238419","178995","HierDyw22wscc6","sub02","02","5","rl","test","75","img/o_d_check.png","7","75","color,shape,pattern","77","1",""
"null","180001","HierDyw22wscc6","sub02","02","5","feedback","test","null","","","na","","77","",""
"780.0999999940395","180783","HierDyw22wscc6","sub02","02","5","rl","test","65","img/p_t_check.png","1","65","color,shape,pattern","78","1",""
"null","181791","HierDyw22wscc6","sub02","02","5","feedback","test","null","","","na","","78","",""
"841.8000000119209","182635","HierDyw22wscc6","sub02","02","5","rl","test","68","img/p_d_check.png","3","68","color,shape,pattern","79","1",""
"null","183642","HierDyw22wscc6","sub02","02","5","feedback","test","null","","","na","","79","",""
"2250.7999999821186","185895","HierDyw22wscc6","sub02","02","5","rl","test","83","img/p_t_diag.png","2","83","color,shape,pattern","80","1",""
"null","186902","HierDyw22wscc6","sub02","02","5","feedback","test","null","","","na","","80","",""
"681.5","187586","HierDyw22wscc6","sub02","02","5","rl","test","76","img/o_d_diag.png","8","76","color,shape,pattern","81","1",""
"null","188588","HierDyw22wscc6","sub02","02","5","feedback","test","null","","","na","","81","",""
"1173.7999999821186","189763","HierDyw22wscc6","sub02","02","5","rl","test","74","img/o_t_check.png","5","72","color,shape,pattern","82","0",""
"null","190766","HierDyw22wscc6","sub02","02","5","feedback","test","null","","","na","","82","",""
"2185.9000000059605","192953","HierDyw22wscc6","sub02","02","5","rl","test","65","img/p_t_check.png","1","65","color,shape,pattern","83","1",""
"null","193958","HierDyw22wscc6","sub02","02","5","feedback","test","null","","","na","","83","",""
"749.6999999880791","194709","HierDyw22wscc6","sub02","02","5","rl","test","70","img/p_d_diag.png","4","70","color,shape,pattern","84","1",""
"null","195716","HierDyw22wscc6","sub02","02","5","feedback","test","null","","","na","","84","",""
"989.1999999880791","196707","HierDyw22wscc6","sub02","02","5","rl","test","83","img/p_t_diag.png","2","83","color,shape,pattern","85","1",""
"null","197709","HierDyw22wscc6","sub02","02","5","feedback","test","null","","","na","","85","",""
"1193.9000000059605","198904","HierDyw22wscc6","sub02","02","5","rl","test","74","img/o_t_diag.png","6","74","color,shape,pattern","86","1",""
"null","199909","HierDyw22wscc6","sub02","02","5","feedback","test","null","","","na","","86","",""
"1869.800000011921","201781","HierDyw22wscc6","sub02","02","5","rl","test","68","img/p_d_check.png","3","68","color,shape,pattern","87","1",""
"null","202782","HierDyw22wscc6","sub02","02","5","feedback","test","null","","","na","","87","",""
"1055.9000000059605","203840","HierDyw22wscc6","sub02","02","5","rl","test","74","img/o_t_diag.png","6","74","color,shape,pattern","88","1",""
"null","204845","HierDyw22wscc6","sub02","02","5","feedback","test","null","","","na","","88","",""
"722.6999999880791","205569","HierDyw22wscc6","sub02","02","5","rl","test","75","img/o_d_check.png","7","75","color,shape,pattern","89","1",""
"null","206576","HierDyw22wscc6","sub02","02","5","feedback","test","null","","","na","","89","",""
"1176.5999999940395","207754","HierDyw22wscc6","sub02","02","5","rl","test","68","img/p_d_check.png","3","68","color,shape,pattern","90","1",""
"null","208758","HierDyw22wscc6","sub02","02","5","feedback","test","null","","","na","","90","",""
"1455.7000000178814","210216","HierDyw22wscc6","sub02","02","5","rl","test","83","img/p_t_diag.png","2","83","color,shape,pattern","91","1",""
"null","211223","HierDyw22wscc6","sub02","02","5","feedback","test","null","","","na","","91","",""
"1636.199999988079","212861","HierDyw22wscc6","sub02","02","5","rl","test","76","img/o_d_diag.png","8","76","color,shape,pattern","92","1",""
"null","213868","HierDyw22wscc6","sub02","02","5","feedback","test","null","","","na","","92","",""
"1407.5999999940395","215278","HierDyw22wscc6","sub02","02","5","rl","test","75","img/o_d_check.png","7","75","color,shape,pattern","93","1",""
"null","216283","HierDyw22wscc6","sub02","02","5","feedback","test","null","","","na","","93","",""
"1180.5","217465","HierDyw22wscc6","sub02","02","5","rl","test","75","img/o_d_check.png","7","75","color,shape,pattern","94","1",""
"null","218472","HierDyw22wscc6","sub02","02","5","feedback","test","null","","","na","","94","",""
"734.0999999940395","219208","HierDyw22wscc6","sub02","02","5","rl","test","72","img/o_t_check.png","5","72","color,shape,pattern","95","1",""
"null","220215","HierDyw22wscc6","sub02","02","5","feedback","test","null","","","na","","95","",""
"668","220885","HierDyw22wscc6","sub02","02","5","rl","test","70","img/p_d_diag.png","4","70","color,shape,pattern","96","1",""
"null","221889","HierDyw22wscc6","sub02","02","5","feedback","test","null","","","na","","96","",""
"1598","223489","HierDyw22wscc6","sub02","02","5","rl","test","65","img/p_t_check.png","1","65","color,shape,pattern","97","1",""
"null","224496","HierDyw22wscc6","sub02","02","5","feedback","test","null","","","na","","97","",""
"1450.7000000178814","225948","HierDyw22wscc6","sub02","02","5","rl","test","72","img/o_t_check.png","5","72","color,shape,pattern","98","1",""
"null","226956","HierDyw22wscc6","sub02","02","5","feedback","test","null","","","na","","98","",""
"2498","229457","HierDyw22wscc6","sub02","02","5","rl","test","68","img/p_d_check.png","3","68","color,shape,pattern","99","1",""
"null","230460","HierDyw22wscc6","sub02","02","5","feedback","test","null","","","na","","99","",""
"1260.0999999940395","231722","HierDyw22wscc6","sub02","02","5","rl","test","65","img/p_t_check.png","1","65","color,shape,pattern","100","1",""
"null","232729","HierDyw22wscc6","sub02","02","5","feedback","test","null","","","na","","100","",""
"1572.7000000178814","234304","HierDyw22wscc6","sub02","02","5","rl","test","70","img/p_d_check.png","3","68","color,shape,pattern","101","0",""
"null","235310","HierDyw22wscc6","sub02","02","5","feedback","test","null","","","na","","101","",""
"1208.9000000059605","236521","HierDyw22wscc6","sub02","02","5","rl","test","74","img/o_t_diag.png","6","74","color,shape,pattern","102","1",""
"null","237528","HierDyw22wscc6","sub02","02","5","feedback","test","null","","","na","","102","",""
"822.6999999880791","238352","HierDyw22wscc6","sub02","02","5","rl","test","70","img/p_d_diag.png","4","70","color,shape,pattern","103","1",""
"null","239359","HierDyw22wscc6","sub02","02","5","feedback","test","null","","","na","","103","",""
"722.3999999761581","240084","HierDyw22wscc6","sub02","02","5","rl","test","70","img/p_d_diag.png","4","70","color,shape,pattern","104","1",""
"null","241087","HierDyw22wscc6","sub02","02","5","feedback","test","null","","","na","","104","",""
"1539.800000011921","242629","HierDyw22wscc6","sub02","02","5","rl","test","83","img/p_t_diag.png","2","83","color,shape,pattern","105","1",""
"null","243633","HierDyw22wscc6","sub02","02","5","feedback","test","null","","","na","","105","",""
"703.6999999880791","244339","HierDyw22wscc6","sub02","02","5","rl","test","65","img/p_t_check.png","1","65","color,shape,pattern","106","1",""
"null","245345","HierDyw22wscc6","sub02","02","5","feedback","test","null","","","na","","106","",""
"897.9000000059605","246245","HierDyw22wscc6","sub02","02","5","rl","test","76","img/o_d_diag.png","8","76","color,shape,pattern","107","1",""
"null","247252","HierDyw22wscc6","sub02","02","5","feedback","test","null","","","na","","107","",""
"549.3000000119209","247803","HierDyw22wscc6","sub02","02","5","rl","test","76","img/o_d_diag.png","8","76","color,shape,pattern","108","1",""
"null","248810","HierDyw22wscc6","sub02","02","5","feedback","test","null","","","na","","108","",""
"841.2999999821186","249653","HierDyw22wscc6","sub02","02","5","rl","test","68","img/o_d_check.png","7","75","color,shape,pattern","109","0",""
"null","250661","HierDyw22wscc6","sub02","02","5","feedback","test","null","","","na","","109","",""
"1890.2999999821186","252553","HierDyw22wscc6","sub02","02","5","rl","test","83","img/p_t_diag.png","2","83","color,shape,pattern","110","1",""
"null","253556","HierDyw22wscc6","sub02","02","5","feedback","test","null","","","na","","110","",""
"658.3000000119209","254217","HierDyw22wscc6","sub02","02","5","rl","test","74","img/o_t_diag.png","6","74","color,shape,pattern","111","1",""
"null","255222","HierDyw22wscc6","sub02","02","5","feedback","test","null","","","na","","111","",""
"1036.7999999821186","256261","HierDyw22wscc6","sub02","02","5","rl","test","70","img/p_d_diag.png","4","70","color,shape,pattern","112","1",""
"null","257264","HierDyw22wscc6","sub02","02","5","feedback","test","null","","","na","","112","",""
"1121","258387","HierDyw22wscc6","sub02","02","5","rl","test","72","img/o_t_check.png","5","72","color,shape,pattern","113","1",""
"null","259394","HierDyw22wscc6","sub02","02","5","feedback","test","null","","","na","","113","",""
"1382.800000011921","260779","HierDyw22wscc6","sub02","02","5","rl","test","68","img/p_d_check.png","3","68","color,shape,pattern","114","1",""
"null","261783","HierDyw22wscc6","sub02","02","5","feedback","test","null","","","na","","114","",""
"758.8000000119209","262543","HierDyw22wscc6","sub02","02","5","rl","test","74","img/o_t_diag.png","6","74","color,shape,pattern","115","1",""
"null","263544","HierDyw22wscc6","sub02","02","5","feedback","test","null","","","na","","115","",""
"1836.9000000059605","265383","HierDyw22wscc6","sub02","02","5","rl","test","75","img/o_d_check.png","7","75","color,shape,pattern","116","1",""
"null","266386","HierDyw22wscc6","sub02","02","5","feedback","test","null","","","na","","116","",""
"1170.0999999940395","267557","HierDyw22wscc6","sub02","02","5","rl","test","65","img/p_t_check.png","1","65","color,shape,pattern","117","1",""
"null","268564","HierDyw22wscc6","sub02","02","5","feedback","test","null","","","na","","117","",""
"1184.300000011921","269749","HierDyw22wscc6","sub02","02","5","rl","test","76","img/o_d_diag.png","8","76","color,shape,pattern","118","1",""
"null","270754","HierDyw22wscc6","sub02","02","5","feedback","test","null","","","na","","118","",""
"1477.5999999940395","272233","HierDyw22wscc6","sub02","02","5","rl","test","83","img/p_t_diag.png","2","83","color,shape,pattern","119","1",""
"null","273238","HierDyw22wscc6","sub02","02","5","feedback","test","null","","","na","","119","",""
"636.1999999880791","273876","HierDyw22wscc6","sub02","02","5","rl","test","76","img/o_d_diag.png","8","76","color,shape,pattern","120","1",""
"null","274882","HierDyw22wscc6","sub02","02","5","feedback","test","null","","","na","","120","",""
"1419.2999999821186","276303","HierDyw22wscc6","sub02","02","5","rl","test","72","img/o_t_check.png","5","72","color,shape,pattern","121","1",""
"null","277310","HierDyw22wscc6","sub02","02","5","feedback","test","null","","","na","","121","",""
"2343.699999988079","279655","HierDyw22wscc6","sub02","02","5","rl","test","68","img/p_t_diag.png","2","83","color,shape,pattern","122","0",""
"null","280659","HierDyw22wscc6","sub02","02","5","feedback","test","null","","","na","","122","",""
"2395.5","283056","HierDyw22wscc6","sub02","02","5","rl","test","75","img/o_d_check.png","7","75","color,shape,pattern","123","1",""
"null","284064","HierDyw22wscc6","sub02","02","5","feedback","test","null","","","na","","123","",""
"731.9000000059605","284799","HierDyw22wscc6","sub02","02","5","rl","test","83","img/p_d_check.png","3","68","color,shape,pattern","124","0",""
"null","285806","HierDyw22wscc6","sub02","02","5","feedback","test","null","","","na","","124","",""
"1003.9000000059605","286812","HierDyw22wscc6","sub02","02","5","rl","test","65","img/o_t_check.png","5","72","color,shape,pattern","125","0",""
"null","287815","HierDyw22wscc6","sub02","02","5","feedback","test","null","","","na","","125","",""
"715.5","288532","HierDyw22wscc6","sub02","02","5","rl","test","70","img/p_d_diag.png","4","70","color,shape,pattern","126","1",""
"null","289533","HierDyw22wscc6","sub02","02","5","feedback","test","null","","","na","","126","",""
"1813.3999999761581","291348","HierDyw22wscc6","sub02","02","5","rl","test","74","img/o_t_diag.png","6","74","color,shape,pattern","127","1",""
"null","292355","HierDyw22wscc6","sub02","02","5","feedback","test","null","","","na","","127","",""
"650.5","293007","HierDyw22wscc6","sub02","02","5","rl","test","65","img/p_t_check.png","1","65","color,shape,pattern","128","1",""
"null","294009","HierDyw22wscc6","sub02","02","5","feedback","test","null","","","na","","128","",""
"2359.300000011921","296370","HierDyw22wscc6","sub02","02","5","rl","test","68","img/o_d_check.png","7","75","color,shape,pattern","129","0",""
"null","297377","HierDyw22wscc6","sub02","02","5","feedback","test","null","","","na","","129","",""
"909","298288","HierDyw22wscc6","sub02","02","5","rl","test","65","img/p_t_check.png","1","65","color,shape,pattern","130","1",""
"null","299294","HierDyw22wscc6","sub02","02","5","feedback","test","null","","","na","","130","",""
"785.8000000119209","300082","HierDyw22wscc6","sub02","02","5","rl","test","70","img/p_d_diag.png","4","70","color,shape,pattern","131","1",""
"null","301089","HierDyw22wscc6","sub02","02","5","feedback","test","null","","","na","","131","",""
"1530.2000000178814","302621","HierDyw22wscc6","sub02","02","5","rl","test","74","img/o_t_diag.png","6","74","color,shape,pattern","132","1",""
"null","303627","HierDyw22wscc6","sub02","02","5","feedback","test","null","","","na","","132","",""
"1568","305197","HierDyw22wscc6","sub02","02","5","rl","test","68","img/p_d_check.png","3","68","color,shape,pattern","133","1",""
"null","306204","HierDyw22wscc6","sub02","02","5","feedback","test","null","","","na","","133","",""
"961.3999999761581","307167","HierDyw22wscc6","sub02","02","5","rl","test","76","img/o_d_diag.png","8","76","color,shape,pattern","134","1",""
"null","308174","HierDyw22wscc6","sub02","02","5","feedback","test","null","","","na","","134","",""
"1769.2000000178814","309944","HierDyw22wscc6","sub02","02","5","rl","test","83","img/p_t_diag.png","2","83","color,shape,pattern","135","1",""
"null","310951","HierDyw22wscc6","sub02","02","5","feedback","test","null","","","na","","135","",""
"2234.2999999821186","313187","HierDyw22wscc6","sub02","02","5","rl","test","72","img/o_t_check.png","5","72","color,shape,pattern","136","1",""
"null","314194","HierDyw22wscc6","sub02","02","5","feedback","test","null","","","na","","136","",""
"637.6999999880791","314833","HierDyw22wscc6","sub02","02","5","rl","test","72","img/o_t_check.png","5","72","color,shape,pattern","137","1",""
"null","315840","HierDyw22wscc6","sub02","02","5","feedback","test","null","","","na","","137","",""
"2238.5","318080","HierDyw22wscc6","sub02","02","5","rl","test","83","img/p_t_diag.png","2","83","color,shape,pattern","138","1",""
"null","319083","HierDyw22wscc6","sub02","02","5","feedback","test","null","","","na","","138","",""
"751.3999999761581","319836","HierDyw22wscc6","sub02","02","5","rl","test","83","img/o_t_diag.png","6","74","color,shape,pattern","139","0",""
"null","320843","HierDyw22wscc6","sub02","02","5","feedback","test","null","","","na","","139","",""
"1030.199999988079","321875","HierDyw22wscc6","sub02","02","5","rl","test","65","img/p_t_check.png","1","65","color,shape,pattern","140","1",""
"null","322878","HierDyw22wscc6","sub02","02","5","feedback","test","null","","","na","","140","",""
"1305.4000000059605","324185","HierDyw22wscc6","sub02","02","5","rl","test","68","img/p_d_check.png","3","68","color,shape,pattern","141","1",""
"null","325191","HierDyw22wscc6","sub02","02","5","feedback","test","null","","","na","","141","",""
"1665.5","326858","HierDyw22wscc6","sub02","02","5","rl","test","75","img/o_d_check.png","7","75","color,shape,pattern","142","1",""
"null","327865","HierDyw22wscc6","sub02","02","5","feedback","test","null","","","na","","142","",""
"952.7000000178814","328819","HierDyw22wscc6","sub02","02","5","rl","test","70","img/p_d_diag.png","4","70","color,shape,pattern","143","1",""
"null","329826","HierDyw22wscc6","sub02","02","5","feedback","test","null","","","na","","143","",""
"1376.5","331203","HierDyw22wscc6","sub02","02","5","rl","test","83","img/p_t_diag.png","2","83","color,shape,pattern","144","1",""
"null","332208","HierDyw22wscc6","sub02","02","5","feedback","test","null","","","na","","144","",""
"822.9000000059605","333032","HierDyw22wscc6","sub02","02","5","rl","test","76","img/p_d_diag.png","4","70","color,shape,pattern","145","0",""
"null","334039","HierDyw22wscc6","sub02","02","5","feedback","test","null","","","na","","145","",""
"1052.7000000178814","335093","HierDyw22wscc6","sub02","02","5","rl","test","75","img/o_d_check.png","7","75","color,shape,pattern","146","1",""
"null","336096","HierDyw22wscc6","sub02","02","5","feedback","test","null","","","na","","146","",""
"658.1999999880791","336756","HierDyw22wscc6","sub02","02","5","rl","test","76","img/o_d_diag.png","8","76","color,shape,pattern","147","1",""
"null","337762","HierDyw22wscc6","sub02","02","5","feedback","test","null","","","na","","147","",""
"541.0999999940395","338305","HierDyw22wscc6","sub02","02","5","rl","test","76","img/o_d_diag.png","8","76","color,shape,pattern","148","1",""
"null","339310","HierDyw22wscc6","sub02","02","5","feedback","test","null","","","na","","148","",""
"966.7000000178814","340278","HierDyw22wscc6","sub02","02","5","rl","test","72","img/o_t_check.png","5","72","color,shape,pattern","149","1",""
"null","341283","HierDyw22wscc6","sub02","02","5","feedback","test","null","","","na","","149","",""
"2129.2999999821186","343415","HierDyw22wscc6","sub02","02","5","rl","test","83","img/p_t_check.png","1","65","color,shape,pattern","150","0",""
"null","344420","HierDyw22wscc6","sub02","02","5","feedback","test","null","","","na","","150","",""
"2106","346528","HierDyw22wscc6","sub02","02","5","rl","test","68","img/p_d_check.png","3","68","color,shape,pattern","151","1",""
"null","347534","HierDyw22wscc6","sub02","02","5","feedback","test","null","","","na","","151","",""
"1062.1000000238419","348598","HierDyw22wscc6","sub02","02","5","rl","test","75","img/o_d_check.png","7","75","color,shape,pattern","152","1",""
"null","349605","HierDyw22wscc6","sub02","02","5","feedback","test","null","","","na","","152","",""
"null","352110","HierDyw22wscc6","sub02","02","5","rl","test","null","img/o_t_diag.png","6","74","color,shape,pattern","153","0",""
"null","353117","HierDyw22wscc6","sub02","02","5","feedback","test","null","","","na","","153","",""
"1032.0999999940395","354151","HierDyw22wscc6","sub02","02","5","rl","test","68","img/p_d_check.png","3","68","color,shape,pattern","154","1",""
"null","355158","HierDyw22wscc6","sub02","02","5","feedback","test","null","","","na","","154","",""
"1153.300000011921","356314","HierDyw22wscc6","sub02","02","5","rl","test","83","img/p_t_diag.png","2","83","color,shape,pattern","155","1",""
"null","357322","HierDyw22wscc6","sub02","02","5","feedback","test","null","","","na","","155","",""
"550.6999999880791","357875","HierDyw22wscc6","sub02","02","5","rl","test","72","img/o_t_check.png","5","72","color,shape,pattern","156","1",""
"null","358877","HierDyw22wscc6","sub02","02","5","feedback","test","null","","","na","","156","",""
"1499.5","360379","HierDyw22wscc6","sub02","02","5","rl","test","74","img/o_t_diag.png","6","74","color,shape,pattern","157","1",""
"null","361384","HierDyw22wscc6","sub02","02","5","feedback","test","null","","","na","","157","",""
"1282.300000011921","362668","HierDyw22wscc6","sub02","02","5","rl","test","65","img/p_t_check.png","1","65","color,shape,pattern","158","1",""
"null","363673","HierDyw22wscc6","sub02","02","5","feedback","test","null","","","na","","158","",""
"2375.800000011921","366050","HierDyw22wscc6","sub02","02","5","rl","test","68","img/p_d_check.png","3","68","color,shape,pattern","159","1",""
"null","367058","HierDyw22wscc6","sub02","02","5","feedback","test","null","","","na","","159","",""
"929.9000000059605","367989","HierDyw22wscc6","sub02","02","5","rl","test","70","img/p_d_diag.png","4","70","color,shape,pattern","160","1",""
"null","368995","HierDyw22wscc6","sub02","02","5","feedback","test","null","","","na","","160","",""
"589.4000000059605","369586","HierDyw22wscc6","sub02","02","5","rl","test","70","img/p_d_diag.png","4","70","color,shape,pattern","161","1",""
"null","370589","HierDyw22wscc6","sub02","02","5","feedback","test","null","","","na","","161","",""
"749.8000000119209","371341","HierDyw22wscc6","sub02","02","5","rl","test","76","img/o_d_diag.png","8","76","color,shape,pattern","162","1",""
"null","372346","HierDyw22wscc6","sub02","02","5","feedback","test","null","","","na","","162","",""
"2408.5","374757","HierDyw22wscc6","sub02","02","5","rl","test","83","img/p_t_check.png","1","65","color,shape,pattern","163","0",""
"null","375764","HierDyw22wscc6","sub02","02","5","feedback","test","null","","","na","","163","",""
"840","376606","HierDyw22wscc6","sub02","02","5","rl","test","83","img/p_t_diag.png","2","83","color,shape,pattern","164","1",""
"null","377611","HierDyw22wscc6","sub02","02","5","feedback","test","null","","","na","","164","",""
"1298.800000011921","378912","HierDyw22wscc6","sub02","02","5","rl","test","76","img/o_d_diag.png","8","76","color,shape,pattern","165","1",""
"null","379919","HierDyw22wscc6","sub02","02","5","feedback","test","null","","","na","","165","",""
"1272.1000000238419","381192","HierDyw22wscc6","sub02","02","5","rl","test","74","img/o_t_diag.png","6","74","color,shape,pattern","166","1",""
"null","382199","HierDyw22wscc6","sub02","02","5","feedback","test","null","","","na","","166","",""
"746.5","382947","HierDyw22wscc6","sub02","02","5","rl","test","75","img/o_d_check.png","7","75","color,shape,pattern","167","1",""
"null","383951","HierDyw22wscc6","sub02","02","5","feedback","test","null","","","na","","167","",""
"584.9000000059605","384538","HierDyw22wscc6","sub02","02","5","rl","test","72","img/o_t_check.png","5","72","color,shape,pattern","168","1",""
"null","385544","HierDyw22wscc6","sub02","02","5","feedback","test","null","","","na","","168","",""
"788","386334","HierDyw22wscc6","sub02","02","5","rl","test","75","img/o_d_check.png","7","75","color,shape,pattern","169","1",""
"null","387338","HierDyw22wscc6","sub02","02","5","feedback","test","null","","","na","","169","",""
"1225.2999999821186","388565","HierDyw22wscc6","sub02","02","5","rl","test","65","img/p_t_check.png","1","65","color,shape,pattern","170","1",""
"null","389572","HierDyw22wscc6","sub02","02","5","feedback","test","null","","","na","","170","",""
"686.4000000059605","390260","HierDyw22wscc6","sub02","02","5","rl","test","70","img/o_d_diag.png","8","76","color,shape,pattern","171","0",""
"null","391266","HierDyw22wscc6","sub02","02","5","feedback","test","null","","","na","","171","",""
"683","391951","HierDyw22wscc6","sub02","02","5","rl","test","70","img/p_d_diag.png","4","70","color,shape,pattern","172","1",""
"null","392956","HierDyw22wscc6","sub02","02","5","feedback","test","null","","","na","","172","",""
"1352.2999999821186","394310","HierDyw22wscc6","sub02","02","5","rl","test","83","img/p_t_diag.png","2","83","color,shape,pattern","173","1",""
"null","395312","HierDyw22wscc6","sub02","02","5","feedback","test","null","","","na","","173","",""
"1509.4000000059605","396823","HierDyw22wscc6","sub02","02","5","rl","test","68","img/p_d_check.png","3","68","color,shape,pattern","174","1",""
"null","397829","HierDyw22wscc6","sub02","02","5","feedback","test","null","","","na","","174","",""
"1487.7000000178814","399319","HierDyw22wscc6","sub02","02","5","rl","test","72","img/o_t_check.png","5","72","color,shape,pattern","175","1",""
"null","400323","HierDyw22wscc6","sub02","02","5","feedback","test","null","","","na","","175","",""
"1400","401725","HierDyw22wscc6","sub02","02","5","rl","test","68","img/p_d_check.png","3","68","color,shape,pattern","176","1",""
"null","402732","HierDyw22wscc6","sub02","02","5","feedback","test","null","","","na","","176","",""
"1522.5999999940395","404257","HierDyw22wscc6","sub02","02","5","rl","test","83","img/p_t_diag.png","2","83","color,shape,pattern","177","1",""
"null","405264","HierDyw22wscc6","sub02","02","5","feedback","test","null","","","na","","177","",""
"811.9000000059605","406078","HierDyw22wscc6","sub02","02","5","rl","test","65","img/p_t_check.png","1","65","color,shape,pattern","178","1",""
"null","407084","HierDyw22wscc6","sub02","02","5","feedback","test","null","","","na","","178","",""
"2043.300000011921","409129","HierDyw22wscc6","sub02","02","5","rl","test","74","img/o_t_diag.png","6","74","color,shape,pattern","179","1",""
"null","410134","HierDyw22wscc6","sub02","02","5","feedback","test","null","","","na","","179","",""
"525.7000000178814","410662","HierDyw22wscc6","sub02","02","5","rl","test","74","img/o_t_diag.png","6","74","color,shape,pattern","180","1",""
"null","411669","HierDyw22wscc6","sub02","02","5","feedback","test","null","","","na","","180","",""
"630.0999999940395","412301","HierDyw22wscc6","sub02","02","5","rl","test","76","img/o_d_diag.png","8","76","color,shape,pattern","181","1",""
"null","413306","HierDyw22wscc6","sub02","02","5","feedback","test","null","","","na","","181","",""
"1827.1000000238419","415135","HierDyw22wscc6","sub02","02","5","rl","test","75","img/o_d_check.png","7","75","color,shape,pattern","182","1",""
"null","416142","HierDyw22wscc6","sub02","02","5","feedback","test","null","","","na","","182","",""
"1047.800000011921","417192","HierDyw22wscc6","sub02","02","5","rl","test","72","img/o_t_check.png","5","72","color,shape,pattern","183","1",""
"null","418199","HierDyw22wscc6","sub02","02","5","feedback","test","null","","","na","","183","",""
"1798.4000000059605","419999","HierDyw22wscc6","sub02","02","5","rl","test","70","img/p_d_diag.png","4","70","color,shape,pattern","184","1",""
"null","421006","HierDyw22wscc6","sub02","02","5","feedback","test","null","","","na","","184","",""
"985.4000000059605","421993","HierDyw22wscc6","sub02","02","5","rl","test","76","img/o_d_diag.png","8","76","color,shape,pattern","185","1",""
"null","423000","HierDyw22wscc6","sub02","02","5","feedback","test","null","","","na","","185","",""
"1121.5","424123","HierDyw22wscc6","sub02","02","5","rl","test","70","img/p_d_diag.png","4","70","color,shape,pattern","186","1",""
"null","425130","HierDyw22wscc6","sub02","02","5","feedback","test","null","","","na","","186","",""
"2383","427515","HierDyw22wscc6","sub02","02","5","rl","test","83","img/p_d_check.png","3","68","color,shape,pattern","187","0",""
"null","428522","HierDyw22wscc6","sub02","02","5","feedback","test","null","","","na","","187","",""
"1121.4000000059605","429645","HierDyw22wscc6","sub02","02","5","rl","test","72","img/o_t_check.png","5","72","color,shape,pattern","188","1",""
"null","430648","HierDyw22wscc6","sub02","02","5","feedback","test","null","","","na","","188","",""
"859.5","431510","HierDyw22wscc6","sub02","02","5","rl","test","70","img/p_d_diag.png","4","70","color,shape,pattern","189","1",""
"null","432517","HierDyw22wscc6","sub02","02","5","feedback","test","null","","","na","","189","",""
"1731.4000000059605","434250","HierDyw22wscc6","sub02","02","5","rl","test","74","img/o_t_diag.png","6","74","color,shape,pattern","190","1",""
"null","435257","HierDyw22wscc6","sub02","02","5","feedback","test","null","","","na","","190","",""
"1287.9000000059605","436547","HierDyw22wscc6","sub02","02","5","rl","test","83","img/p_t_diag.png","2","83","color,shape,pattern","191","1",""
"null","437553","HierDyw22wscc6","sub02","02","5","feedback","test","null","","","na","","191","",""
"1253.8999999761581","438809","HierDyw22wscc6","sub02","02","5","rl","test","83","img/p_t_diag.png","2","83","color,shape,pattern","192","1",""
"null","439812","HierDyw22wscc6","sub02","02","5","feedback","test","null","","","na","","192","",""
"1070.2000000178814","440884","HierDyw22wscc6","sub02","02","5","rl","test","65","img/p_t_check.png","1","65","color,shape,pattern","193","1",""
"null","441887","HierDyw22wscc6","sub02","02","5","feedback","test","null","","","na","","193","",""
"1472.9000000059605","443362","HierDyw22wscc6","sub02","02","5","rl","test","72","img/o_t_check.png","5","72","color,shape,pattern","194","1",""
"null","444366","HierDyw22wscc6","sub02","02","5","feedback","test","null","","","na","","194","",""
"1884.300000011921","446252","HierDyw22wscc6","sub02","02","5","rl","test","68","img/o_d_check.png","7","75","color,shape,pattern","195","0",""
"null","447259","HierDyw22wscc6","sub02","02","5","feedback","test","null","","","na","","195","",""
"877.8000000119209","448138","HierDyw22wscc6","sub02","02","5","rl","test","76","img/o_d_diag.png","8","76","color,shape,pattern","196","1",""
"null","449145","HierDyw22wscc6","sub02","02","5","feedback","test","null","","","na","","196","",""
"787.6999999880791","449935","HierDyw22wscc6","sub02","02","5","rl","test","65","img/p_t_check.png","1","65","color,shape,pattern","197","1",""
"null","450937","HierDyw22wscc6","sub02","02","5","feedback","test","null","","","na","","197","",""
"992.5999999940395","451931","HierDyw22wscc6","sub02","02","5","rl","test","74","img/o_t_diag.png","6","74","color,shape,pattern","198","1",""
"null","452934","HierDyw22wscc6","sub02","02","5","feedback","test","null","","","na","","198","",""
"1054.699999988079","453990","HierDyw22wscc6","sub02","02","5","rl","test","75","img/p_d_check.png","3","68","color,shape,pattern","199","0",""
"null","454997","HierDyw22wscc6","sub02","02","5","feedback","test","null","","","na","","199","",""
"486","455485","HierDyw22wscc6","sub02","02","5","rl","test","75","img/o_d_check.png","7","75","color,shape,pattern","200","1",""
"null","456491","HierDyw22wscc6","sub02","02","5","feedback","test","null","","","na","","200","",""
"554.2000000178814","457047","HierDyw22wscc6","sub02","02","5","rl","test","75","img/o_d_check.png","7","75","color,shape,pattern","201","1",""
"null","458053","HierDyw22wscc6","sub02","02","5","feedback","test","null","","","na","","201","",""
"794.5","458849","HierDyw22wscc6","sub02","02","5","rl","test","68","img/p_d_check.png","3","68","color,shape,pattern","202","1",""
"null","459853","HierDyw22wscc6","sub02","02","5","feedback","test","null","","","na","","202","",""
"1316","461170","HierDyw22wscc6","sub02","02","5","rl","test","70","img/p_d_diag.png","4","70","color,shape,pattern","203","1",""
"null","462177","HierDyw22wscc6","sub02","02","5","feedback","test","null","","","na","","203","",""
"1186.4000000059605","463365","HierDyw22wscc6","sub02","02","5","rl","test","65","img/p_t_check.png","1","65","color,shape,pattern","204","1",""
"null","464370","HierDyw22wscc6","sub02","02","5","feedback","test","null","","","na","","204","",""
"1081.5","465453","HierDyw22wscc6","sub02","02","5","rl","test","76","img/o_d_diag.png","8","76","color,shape,pattern","205","1",""
"null","466459","HierDyw22wscc6","sub02","02","5","feedback","test","null","","","na","","205","",""
"1178.7999999821186","467640","HierDyw22wscc6","sub02","02","5","rl","test","74","img/o_t_diag.png","6","74","color,shape,pattern","206","1",""
"null","468647","HierDyw22wscc6","sub02","02","5","feedback","test","null","","","na","","206","",""
"911.8999999761581","469560","HierDyw22wscc6","sub02","02","5","rl","test","83","img/p_t_diag.png","2","83","color,shape,pattern","207","1",""
"null","470566","HierDyw22wscc6","sub02","02","5","feedback","test","null","","","na","","207","",""
"1844.199999988079","472412","HierDyw22wscc6","sub02","02","5","rl","test","72","img/o_t_check.png","5","72","color,shape,pattern","208","1",""
"null","473415","HierDyw22wscc6","sub02","02","5","feedback","test","null","","","na","","208","",""
"788.3000000119209","474205","HierDyw22wscc6","sub02","02","5","rl","test","70","img/p_d_diag.png","4","70","color,shape,pattern","209","1",""
"null","475211","HierDyw22wscc6","sub02","02","5","feedback","test","null","","","na","","209","",""
"1069.0999999940395","476282","HierDyw22wscc6","sub02","02","5","rl","test","72","img/o_t_check.png","5","72","color,shape,pattern","210","1",""
"null","477284","HierDyw22wscc6","sub02","02","5","feedback","test","null","","","na","","210","",""
"1167.0999999940395","478453","HierDyw22wscc6","sub02","02","5","rl","test","65","img/p_t_check.png","1","65","color,shape,pattern","211","1",""
"null","479460","HierDyw22wscc6","sub02","02","5","feedback","test","null","","","na","","211","",""
"1438.7000000178814","480901","HierDyw22wscc6","sub02","02","5","rl","test","75","img/o_t_diag.png","6","74","color,shape,pattern","212","0",""
"null","481908","HierDyw22wscc6","sub02","02","5","feedback","test","null","","","na","","212","",""
"1070.8999999761581","482981","HierDyw22wscc6","sub02","02","5","rl","test","68","img/p_d_check.png","3","68","color,shape,pattern","213","1",""
"null","483984","HierDyw22wscc6","sub02","02","5","feedback","test","null","","","na","","213","",""
"1600.300000011921","485587","HierDyw22wscc6","sub02","02","5","rl","test","75","img/o_d_check.png","7","75","color,shape,pattern","214","1",""
"null","486593","HierDyw22wscc6","sub02","02","5","feedback","test","null","","","na","","214","",""
"718","487313","HierDyw22wscc6","sub02","02","5","rl","test","76","img/o_d_diag.png","8","76","color,shape,pattern","215","1",""
"null","488317","HierDyw22wscc6","sub02","02","5","feedback","test","null","","","na","","215","",""
"1160","489479","HierDyw22wscc6","sub02","02","5","rl","test","83","img/p_t_diag.png","2","83","color,shape,pattern","216","1",""
"null","490484","HierDyw22wscc6","sub02","02","5","feedback","test","null","","","na","","216","",""
"1399","491885","HierDyw22wscc6","sub02","02","5","rl","test","68","img/p_d_check.png","3","68","color,shape,pattern","217","1",""
"null","492889","HierDyw22wscc6","sub02","02","5","feedback","test","null","","","na","","217","",""
"2109.4000000059605","495001","HierDyw22wscc6","sub02","02","5","rl","test","83","img/p_t_diag.png","2","83","color,shape,pattern","218","1",""
"null","496003","HierDyw22wscc6","sub02","02","5","feedback","test","null","","","na","","218","",""
"1312.4000000059605","497318","HierDyw22wscc6","sub02","02","5","rl","test","75","img/o_d_check.png","7","75","color,shape,pattern","219","1",""
"null","498324","HierDyw22wscc6","sub02","02","5","feedback","test","null","","","na","","219","",""
"623.2999999821186","498949","HierDyw22wscc6","sub02","02","5","rl","test","75","img/o_d_check.png","7","75","color,shape,pattern","220","1",""
"null","499956","HierDyw22wscc6","sub02","02","5","feedback","test","null","","","na","","220","",""
"1444.7000000178814","501403","HierDyw22wscc6","sub02","02","5","rl","test","70","img/p_d_diag.png","4","70","color,shape,pattern","221","1",""
"null","502410","HierDyw22wscc6","sub02","02","5","feedback","test","null","","","na","","221","",""
"643.4000000059605","503056","HierDyw22wscc6","sub02","02","5","rl","test","76","img/o_d_diag.png","8","76","color,shape,pattern","222","1",""
"null","504061","HierDyw22wscc6","sub02","02","5","feedback","test","null","","","na","","222","",""
"978.2000000178814","505041","HierDyw22wscc6","sub02","02","5","rl","test","72","img/o_t_check.png","5","72","color,shape,pattern","223","1",""
"null","506047","HierDyw22wscc6","sub02","02","5","feedback","test","null","","","na","","223","",""
"695.7000000178814","506744","HierDyw22wscc6","sub02","02","5","rl","test","70","img/p_d_diag.png","4","70","color,shape,pattern","224","1",""
"null","507747","HierDyw22wscc6","sub02","02","5","feedback","test","null","","","na","","224","",""
"963.9000000059605","508713","HierDyw22wscc6","sub02","02","5","rl","test","65","img/p_t_check.png","1","65","color,shape,pattern","225","1",""
"null","509719","HierDyw22wscc6","sub02","02","5","feedback","test","null","","","na","","225","",""
"982.4000000059605","510704","HierDyw22wscc6","sub02","02","5","rl","test","76","img/o_d_diag.png","8","76","color,shape,pattern","226","1",""
"null","511706","HierDyw22wscc6","sub02","02","5","feedback","test","null","","","na","","226","",""
"2070.9000000059605","513779","HierDyw22wscc6","sub02","02","5","rl","test","83","img/o_t_diag.png","6","74","color,shape,pattern","227","0",""
"null","514785","HierDyw22wscc6","sub02","02","5","feedback","test","null","","","na","","227","",""
"2495.2000000178814","517282","HierDyw22wscc6","sub02","02","5","rl","test","83","img/p_t_check.png","1","65","color,shape,pattern","228","0",""
"null","518285","HierDyw22wscc6","sub02","02","5","feedback","test","null","","","na","","228","",""
"789.8999999761581","519077","HierDyw22wscc6","sub02","02","5","rl","test","68","img/p_d_check.png","3","68","color,shape,pattern","229","1",""
"null","520079","HierDyw22wscc6","sub02","02","5","feedback","test","null","","","na","","229","",""
"643.7000000178814","520725","HierDyw22wscc6","sub02","02","5","rl","test","68","img/p_d_check.png","3","68","color,shape,pattern","230","1",""
"null","521732","HierDyw22wscc6","sub02","02","5","feedback","test","null","","","na","","230","",""
"1919.5","523653","HierDyw22wscc6","sub02","02","5","rl","test","72","img/o_t_check.png","5","72","color,shape,pattern","231","1",""
"null","524661","HierDyw22wscc6","sub02","02","5","feedback","test","null","","","na","","231","",""
"1150.2000000178814","525813","HierDyw22wscc6","sub02","02","5","rl","test","75","img/o_t_diag.png","6","74","color,shape,pattern","232","0",""
"null","526819","HierDyw22wscc6","sub02","02","5","feedback","test","null","","","na","","232","",""
"997.9000000059605","527818","HierDyw22wscc6","sub02","02","5","rl","test","83","img/p_t_diag.png","2","83","color,shape,pattern","233","1",""
"null","528821","HierDyw22wscc6","sub02","02","5","feedback","test","null","","","na","","233","",""
"1474.0999999940395","530297","HierDyw22wscc6","sub02","02","5","rl","test","70","img/p_d_diag.png","4","70","color,shape,pattern","234","1",""
"null","531300","HierDyw22wscc6","sub02","02","5","feedback","test","null","","","na","","234","",""
"2177.300000011921","533479","HierDyw22wscc6","sub02","02","5","rl","test","68","img/o_d_check.png","7","75","color,shape,pattern","235","0",""
"null","534485","HierDyw22wscc6","sub02","02","5","feedback","test","null","","","na","","235","",""
"2493.9000000059605","536981","HierDyw22wscc6","sub02","02","5","rl","test","74","img/o_t_diag.png","6","74","color,shape,pattern","236","1",""
"null","537985","HierDyw22wscc6","sub02","02","5","feedback","test","null","","","na","","236","",""
"1759.1000000238419","539746","HierDyw22wscc6","sub02","02","5","rl","test","65","img/o_t_check.png","5","72","color,shape,pattern","237","0",""
"null","540748","HierDyw22wscc6","sub02","02","5","feedback","test","null","","","na","","237","",""
"1444.800000011921","542195","HierDyw22wscc6","sub02","02","5","rl","test","74","img/o_t_diag.png","6","74","color,shape,pattern","238","1",""
"null","543200","HierDyw22wscc6","sub02","02","5","feedback","test","null","","","na","","238","",""
"710.8000000119209","543912","HierDyw22wscc6","sub02","02","5","rl","test","65","img/p_t_check.png","1","65","color,shape,pattern","239","1",""
"null","544920","HierDyw22wscc6","sub02","02","5","feedback","test","null","","","na","","239","",""
"686.4000000059605","545608","HierDyw22wscc6","sub02","02","5","rl","test","76","img/o_d_diag.png","8","76","color,shape,pattern","240","1",""
"null","546612","HierDyw22wscc6","sub02","02","5","feedback","test","null","","","na","","240","",""
"1920.2000000178814","548534","HierDyw22wscc6","sub02","02","5","rl","test","83","img/p_t_diag.png","2","83","color,shape,pattern","241","1",""
"null","549539","HierDyw22wscc6","sub02","02","5","feedback","test","null","","","na","","241","",""
"604.1999999880791","550145","HierDyw22wscc6","sub02","02","5","rl","test","83","img/p_t_diag.png","2","83","color,shape,pattern","242","1",""
"null","551152","HierDyw22wscc6","sub02","02","5","feedback","test","null","","","na","","242","",""
"770.3999999761581","551925","HierDyw22wscc6","sub02","02","5","rl","test","76","img/o_d_diag.png","8","76","color,shape,pattern","243","1",""
"null","552932","HierDyw22wscc6","sub02","02","5","feedback","test","null","","","na","","243","",""
"1541.8999999761581","554476","HierDyw22wscc6","sub02","02","5","rl","test","68","img/o_d_check.png","7","75","color,shape,pattern","244","0",""
"null","555479","HierDyw22wscc6","sub02","02","5","feedback","test","null","","","na","","244","",""
"1127.9000000059605","556609","HierDyw22wscc6","sub02","02","5","rl","test","68","img/p_d_check.png","3","68","color,shape,pattern","245","1",""
"null","557612","HierDyw22wscc6","sub02","02","5","feedback","test","null","","","na","","245","",""
"1344.7999999821186","558959","HierDyw22wscc6","sub02","02","5","rl","test","65","img/p_t_check.png","1","65","color,shape,pattern","246","1",""
"null","559963","HierDyw22wscc6","sub02","02","5","feedback","test","null","","","na","","246","",""
"854.6999999880791","560820","HierDyw22wscc6","sub02","02","5","rl","test","70","img/p_d_diag.png","4","70","color,shape,pattern","247","1",""
"null","561826","HierDyw22wscc6","sub02","02","5","feedback","test","null","","","na","","247","",""
"1009.5","562838","HierDyw22wscc6","sub02","02","5","rl","test","72","img/o_t_check.png","5","72","color,shape,pattern","248","1",""
"null","563844","HierDyw22wscc6","sub02","02","5","feedback","test","null","","","na","","248","",""
"13558.5","577408","HierDyw22wscc6","sub02","02","5","","","","","","","","","","{""Q0"":""6""}"
"57295.10000002384","634707","HierDyw22wscc6","sub02","02","5","","","","","","","","","","{""Q0"":""I remembered where the patterns were from yesterday and I used the same strategy from yesterday which was corresponding the color purple with the left hand and the color orange with the right hand and corresponding the four fingers on each hand with the striped diamond, checkered diamond, striped triangle, and checkered triangle from right to left on each hand respectively. I also repeated the color of the figure in my head because I had memorized where the patterns were and was mainly messing up on the colors.  ""}"
"2110.5999999940395","636819","HierDyw22wscc6","sub02","02","5","","","","","","","","","",""
