"rt","time_elapsed","subject","subID","group","day","trialType","phase","key_press","stim","stimNum","corrresp","hierarchy","trialNum","corr","responses"
"41359","41363","HierDy60oyfcge","sub01 ","01 ","6","","","","","","","","","",""
"","43085","HierDy60oyfcge","sub01 ","01 ","6","fullscreen","","","","","","","","",""
"602","43688","HierDy60oyfcge","sub01 ","01 ","6","","prac","","","","","","","",""
"766","44456","HierDy60oyfcge","sub01 ","01 ","6","","","32","","","","","","",""
"2302","46759","HierDy60oyfcge","sub01 ","01 ","6","","prac","","","","","","","",""
"683","47444","HierDy60oyfcge","sub01 ","01 ","6","rl","test","65","img/r_c_dots.png","5","72","color,shape,pattern","1","0",""
"null","48448","HierDy60oyfcge","sub01 ","01 ","6","feedback","test","null","","","na","","1","",""
"864","49314","HierDy60oyfcge","sub01 ","01 ","6","rl","test","65","img/b_c_dots.png","1","65","color,shape,pattern","2","1",""
"null","50317","HierDy60oyfcge","sub01 ","01 ","6","feedback","test","null","","","na","","2","",""
"1010","51328","HierDy60oyfcge","sub01 ","01 ","6","rl","test","70","img/b_s_stripes.png","4","70","color,shape,pattern","3","1",""
"null","52331","HierDy60oyfcge","sub01 ","01 ","6","feedback","test","null","","","na","","3","",""
"883","53216","HierDy60oyfcge","sub01 ","01 ","6","rl","test","74","img/r_c_stripes.png","6","74","color,shape,pattern","4","1",""
"null","54219","HierDy60oyfcge","sub01 ","01 ","6","feedback","test","null","","","na","","4","",""
"813","55034","HierDy60oyfcge","sub01 ","01 ","6","rl","test","68","img/b_s_dots.png","3","68","color,shape,pattern","5","1",""
"null","56037","HierDy60oyfcge","sub01 ","01 ","6","feedback","test","null","","","na","","5","",""
"1086.0000000000073","57124","HierDy60oyfcge","sub01 ","01 ","6","rl","test","83","img/b_c_stripes.png","2","83","color,shape,pattern","6","1",""
"null","58127","HierDy60oyfcge","sub01 ","01 ","6","feedback","test","null","","","na","","6","",""
"1398.0000000000073","59526","HierDy60oyfcge","sub01 ","01 ","6","rl","test","75","img/r_s_dots.png","7","75","color,shape,pattern","7","1",""
"null","60529","HierDy60oyfcge","sub01 ","01 ","6","feedback","test","null","","","na","","7","",""
"1029","61560","HierDy60oyfcge","sub01 ","01 ","6","rl","test","68","img/b_s_dots.png","3","68","color,shape,pattern","8","1",""
"null","62563","HierDy60oyfcge","sub01 ","01 ","6","feedback","test","null","","","na","","8","",""
"756","63321","HierDy60oyfcge","sub01 ","01 ","6","rl","test","76","img/r_s_stripes.png","8","76","color,shape,pattern","9","1",""
"null","64324","HierDy60oyfcge","sub01 ","01 ","6","feedback","test","null","","","na","","9","",""
"497","64823","HierDy60oyfcge","sub01 ","01 ","6","rl","test","76","img/r_s_stripes.png","8","76","color,shape,pattern","10","1",""
"null","65825","HierDy60oyfcge","sub01 ","01 ","6","feedback","test","null","","","na","","10","",""
"768","66595","HierDy60oyfcge","sub01 ","01 ","6","rl","test","83","img/b_c_stripes.png","2","83","color,shape,pattern","11","1",""
"null","67597","HierDy60oyfcge","sub01 ","01 ","6","feedback","test","null","","","na","","11","",""
"833.9999999999854","68432","HierDy60oyfcge","sub01 ","01 ","6","rl","test","72","img/r_c_dots.png","5","72","color,shape,pattern","12","1",""
"null","69434","HierDy60oyfcge","sub01 ","01 ","6","feedback","test","null","","","na","","12","",""
"716","70151","HierDy60oyfcge","sub01 ","01 ","6","rl","test","75","img/r_s_dots.png","7","75","color,shape,pattern","13","1",""
"null","71154","HierDy60oyfcge","sub01 ","01 ","6","feedback","test","null","","","na","","13","",""
"681.0000000000146","71836","HierDy60oyfcge","sub01 ","01 ","6","rl","test","74","img/r_c_stripes.png","6","74","color,shape,pattern","14","1",""
"null","72839","HierDy60oyfcge","sub01 ","01 ","6","feedback","test","null","","","na","","14","",""
"754","73595","HierDy60oyfcge","sub01 ","01 ","6","rl","test","65","img/b_c_dots.png","1","65","color,shape,pattern","15","1",""
"null","74597","HierDy60oyfcge","sub01 ","01 ","6","feedback","test","null","","","na","","15","",""
"744.9999999999854","75344","HierDy60oyfcge","sub01 ","01 ","6","rl","test","70","img/b_s_stripes.png","4","70","color,shape,pattern","16","1",""
"null","76347","HierDy60oyfcge","sub01 ","01 ","6","feedback","test","null","","","na","","16","",""
"733.9999999999854","77083","HierDy60oyfcge","sub01 ","01 ","6","rl","test","76","img/r_s_stripes.png","8","76","color,shape,pattern","17","1",""
"null","78086","HierDy60oyfcge","sub01 ","01 ","6","feedback","test","null","","","na","","17","",""
"456","78544","HierDy60oyfcge","sub01 ","01 ","6","rl","test","76","img/b_s_stripes.png","4","70","color,shape,pattern","18","0",""
"null","79546","HierDy60oyfcge","sub01 ","01 ","6","feedback","test","null","","","na","","18","",""
"1176.0000000000146","80724","HierDy60oyfcge","sub01 ","01 ","6","rl","test","74","img/b_c_stripes.png","2","83","color,shape,pattern","19","0",""
"null","81726","HierDy60oyfcge","sub01 ","01 ","6","feedback","test","null","","","na","","19","",""
"720","82448","HierDy60oyfcge","sub01 ","01 ","6","rl","test","65","img/b_c_dots.png","1","65","color,shape,pattern","20","1",""
"null","83450","HierDy60oyfcge","sub01 ","01 ","6","feedback","test","null","","","na","","20","",""
"904","84356","HierDy60oyfcge","sub01 ","01 ","6","rl","test","68","img/b_s_dots.png","3","68","color,shape,pattern","21","1",""
"null","85358","HierDy60oyfcge","sub01 ","01 ","6","feedback","test","null","","","na","","21","",""
"600","85959","HierDy60oyfcge","sub01 ","01 ","6","rl","test","65","img/b_c_dots.png","1","65","color,shape,pattern","22","1",""
"null","86962","HierDy60oyfcge","sub01 ","01 ","6","feedback","test","null","","","na","","22","",""
"703","87666","HierDy60oyfcge","sub01 ","01 ","6","rl","test","72","img/r_c_dots.png","5","72","color,shape,pattern","23","1",""
"null","88669","HierDy60oyfcge","sub01 ","01 ","6","feedback","test","null","","","na","","23","",""
"1008","89679","HierDy60oyfcge","sub01 ","01 ","6","rl","test","68","img/b_s_dots.png","3","68","color,shape,pattern","24","1",""
"null","90681","HierDy60oyfcge","sub01 ","01 ","6","feedback","test","null","","","na","","24","",""
"593","91276","HierDy60oyfcge","sub01 ","01 ","6","rl","test","75","img/r_s_dots.png","7","75","color,shape,pattern","25","1",""
"null","92278","HierDy60oyfcge","sub01 ","01 ","6","feedback","test","null","","","na","","25","",""
"714","92993","HierDy60oyfcge","sub01 ","01 ","6","rl","test","75","img/r_s_dots.png","7","75","color,shape,pattern","26","1",""
"null","93996","HierDy60oyfcge","sub01 ","01 ","6","feedback","test","null","","","na","","26","",""
"981","94978","HierDy60oyfcge","sub01 ","01 ","6","rl","test","72","img/r_c_dots.png","5","72","color,shape,pattern","27","1",""
"null","95981","HierDy60oyfcge","sub01 ","01 ","6","feedback","test","null","","","na","","27","",""
"523.9999999999854","96506","HierDy60oyfcge","sub01 ","01 ","6","rl","test","74","img/r_c_stripes.png","6","74","color,shape,pattern","28","1",""
"null","97509","HierDy60oyfcge","sub01 ","01 ","6","feedback","test","null","","","na","","28","",""
"674","98185","HierDy60oyfcge","sub01 ","01 ","6","rl","test","74","img/r_c_stripes.png","6","74","color,shape,pattern","29","1",""
"null","99188","HierDy60oyfcge","sub01 ","01 ","6","feedback","test","null","","","na","","29","",""
"1022.0000000000146","100211","HierDy60oyfcge","sub01 ","01 ","6","rl","test","70","img/b_s_stripes.png","4","70","color,shape,pattern","30","1",""
"null","101214","HierDy60oyfcge","sub01 ","01 ","6","feedback","test","null","","","na","","30","",""
"579","101795","HierDy60oyfcge","sub01 ","01 ","6","rl","test","76","img/r_s_stripes.png","8","76","color,shape,pattern","31","1",""
"null","102796","HierDy60oyfcge","sub01 ","01 ","6","feedback","test","null","","","na","","31","",""
"595","103393","HierDy60oyfcge","sub01 ","01 ","6","rl","test","76","img/b_s_stripes.png","4","70","color,shape,pattern","32","0",""
"null","104394","HierDy60oyfcge","sub01 ","01 ","6","feedback","test","null","","","na","","32","",""
"722","105117","HierDy60oyfcge","sub01 ","01 ","6","rl","test","74","img/b_c_stripes.png","2","83","color,shape,pattern","33","0",""
"null","106120","HierDy60oyfcge","sub01 ","01 ","6","feedback","test","null","","","na","","33","",""
"518","106639","HierDy60oyfcge","sub01 ","01 ","6","rl","test","83","img/r_c_stripes.png","6","74","color,shape,pattern","34","0",""
"null","107641","HierDy60oyfcge","sub01 ","01 ","6","feedback","test","null","","","na","","34","",""
"625","108268","HierDy60oyfcge","sub01 ","01 ","6","rl","test","75","img/r_s_dots.png","7","75","color,shape,pattern","35","1",""
"null","109270","HierDy60oyfcge","sub01 ","01 ","6","feedback","test","null","","","na","","35","",""
"596","109867","HierDy60oyfcge","sub01 ","01 ","6","rl","test","83","img/b_c_stripes.png","2","83","color,shape,pattern","36","1",""
"null","110869","HierDy60oyfcge","sub01 ","01 ","6","feedback","test","null","","","na","","36","",""
"564","111435","HierDy60oyfcge","sub01 ","01 ","6","rl","test","65","img/b_c_dots.png","1","65","color,shape,pattern","37","1",""
"null","112437","HierDy60oyfcge","sub01 ","01 ","6","feedback","test","null","","","na","","37","",""
"554","112992","HierDy60oyfcge","sub01 ","01 ","6","rl","test","72","img/r_c_dots.png","5","72","color,shape,pattern","38","1",""
"null","113995","HierDy60oyfcge","sub01 ","01 ","6","feedback","test","null","","","na","","38","",""
"827","114823","HierDy60oyfcge","sub01 ","01 ","6","rl","test","68","img/b_s_dots.png","3","68","color,shape,pattern","39","1",""
"null","115826","HierDy60oyfcge","sub01 ","01 ","6","feedback","test","null","","","na","","39","",""
"810.9999999999854","116639","HierDy60oyfcge","sub01 ","01 ","6","rl","test","70","img/b_s_stripes.png","4","70","color,shape,pattern","40","1",""
"null","117641","HierDy60oyfcge","sub01 ","01 ","6","feedback","test","null","","","na","","40","",""
"508","118150","HierDy60oyfcge","sub01 ","01 ","6","rl","test","76","img/r_s_stripes.png","8","76","color,shape,pattern","41","1",""
"null","119153","HierDy60oyfcge","sub01 ","01 ","6","feedback","test","null","","","na","","41","",""
"825.0000000000146","119979","HierDy60oyfcge","sub01 ","01 ","6","rl","test","75","img/r_s_dots.png","7","75","color,shape,pattern","42","1",""
"null","120981","HierDy60oyfcge","sub01 ","01 ","6","feedback","test","null","","","na","","42","",""
"1314","122297","HierDy60oyfcge","sub01 ","01 ","6","rl","test","65","img/b_c_dots.png","1","65","color,shape,pattern","43","1",""
"null","123300","HierDy60oyfcge","sub01 ","01 ","6","feedback","test","null","","","na","","43","",""
"655.9999999999709","123957","HierDy60oyfcge","sub01 ","01 ","6","rl","test","70","img/b_s_stripes.png","4","70","color,shape,pattern","44","1",""
"null","124959","HierDy60oyfcge","sub01 ","01 ","6","feedback","test","null","","","na","","44","",""
"730","125690","HierDy60oyfcge","sub01 ","01 ","6","rl","test","83","img/b_c_stripes.png","2","83","color,shape,pattern","45","1",""
"null","126693","HierDy60oyfcge","sub01 ","01 ","6","feedback","test","null","","","na","","45","",""
"522","127216","HierDy60oyfcge","sub01 ","01 ","6","rl","test","68","img/b_s_dots.png","3","68","color,shape,pattern","46","1",""
"null","128219","HierDy60oyfcge","sub01 ","01 ","6","feedback","test","null","","","na","","46","",""
"887","129107","HierDy60oyfcge","sub01 ","01 ","6","rl","test","76","img/r_s_stripes.png","8","76","color,shape,pattern","47","1",""
"null","130110","HierDy60oyfcge","sub01 ","01 ","6","feedback","test","null","","","na","","47","",""
"625","130736","HierDy60oyfcge","sub01 ","01 ","6","rl","test","72","img/r_c_dots.png","5","72","color,shape,pattern","48","1",""
"null","131739","HierDy60oyfcge","sub01 ","01 ","6","feedback","test","null","","","na","","48","",""
"521","132261","HierDy60oyfcge","sub01 ","01 ","6","rl","test","74","img/r_c_stripes.png","6","74","color,shape,pattern","49","1",""
"null","133264","HierDy60oyfcge","sub01 ","01 ","6","feedback","test","null","","","na","","49","",""
"571","133835","HierDy60oyfcge","sub01 ","01 ","6","rl","test","76","img/r_s_stripes.png","8","76","color,shape,pattern","50","1",""
"null","134838","HierDy60oyfcge","sub01 ","01 ","6","feedback","test","null","","","na","","50","",""
"786","135625","HierDy60oyfcge","sub01 ","01 ","6","rl","test","65","img/b_c_dots.png","1","65","color,shape,pattern","51","1",""
"null","136628","HierDy60oyfcge","sub01 ","01 ","6","feedback","test","null","","","na","","51","",""
"543","137172","HierDy60oyfcge","sub01 ","01 ","6","rl","test","72","img/r_c_dots.png","5","72","color,shape,pattern","52","1",""
"null","138175","HierDy60oyfcge","sub01 ","01 ","6","feedback","test","null","","","na","","52","",""
"641","138817","HierDy60oyfcge","sub01 ","01 ","6","rl","test","75","img/r_s_dots.png","7","75","color,shape,pattern","53","1",""
"null","139820","HierDy60oyfcge","sub01 ","01 ","6","feedback","test","null","","","na","","53","",""
"701.0000000000291","140522","HierDy60oyfcge","sub01 ","01 ","6","rl","test","83","img/r_c_stripes.png","6","74","color,shape,pattern","54","0",""
"null","141525","HierDy60oyfcge","sub01 ","01 ","6","feedback","test","null","","","na","","54","",""
"1133.000000000029","142660","HierDy60oyfcge","sub01 ","01 ","6","rl","test","75","img/r_s_dots.png","7","75","color,shape,pattern","55","1",""
"null","143662","HierDy60oyfcge","sub01 ","01 ","6","feedback","test","null","","","na","","55","",""
"668","144331","HierDy60oyfcge","sub01 ","01 ","6","rl","test","72","img/r_c_dots.png","5","72","color,shape,pattern","56","1",""
"null","145333","HierDy60oyfcge","sub01 ","01 ","6","feedback","test","null","","","na","","56","",""
"721","146056","HierDy60oyfcge","sub01 ","01 ","6","rl","test","83","img/b_c_stripes.png","2","83","color,shape,pattern","57","1",""
"null","147059","HierDy60oyfcge","sub01 ","01 ","6","feedback","test","null","","","na","","57","",""
"542","147602","HierDy60oyfcge","sub01 ","01 ","6","rl","test","83","img/b_c_stripes.png","2","83","color,shape,pattern","58","1",""
"null","148605","HierDy60oyfcge","sub01 ","01 ","6","feedback","test","null","","","na","","58","",""
"864","149470","HierDy60oyfcge","sub01 ","01 ","6","rl","test","70","img/b_s_stripes.png","4","70","color,shape,pattern","59","1",""
"null","150472","HierDy60oyfcge","sub01 ","01 ","6","feedback","test","null","","","na","","59","",""
"671","151144","HierDy60oyfcge","sub01 ","01 ","6","rl","test","68","img/b_s_dots.png","3","68","color,shape,pattern","60","1",""
"null","152146","HierDy60oyfcge","sub01 ","01 ","6","feedback","test","null","","","na","","60","",""
"740.9999999999709","152888","HierDy60oyfcge","sub01 ","01 ","6","rl","test","76","img/r_s_stripes.png","8","76","color,shape,pattern","61","1",""
"null","153891","HierDy60oyfcge","sub01 ","01 ","6","feedback","test","null","","","na","","61","",""
"621","154513","HierDy60oyfcge","sub01 ","01 ","6","rl","test","74","img/r_c_stripes.png","6","74","color,shape,pattern","62","1",""
"null","155516","HierDy60oyfcge","sub01 ","01 ","6","feedback","test","null","","","na","","62","",""
"721","156239","HierDy60oyfcge","sub01 ","01 ","6","rl","test","68","img/b_s_dots.png","3","68","color,shape,pattern","63","1",""
"null","157242","HierDy60oyfcge","sub01 ","01 ","6","feedback","test","null","","","na","","63","",""
"573","157816","HierDy60oyfcge","sub01 ","01 ","6","rl","test","65","img/b_c_dots.png","1","65","color,shape,pattern","64","1",""
"null","158819","HierDy60oyfcge","sub01 ","01 ","6","feedback","test","null","","","na","","64","",""
"560.9999999999709","159382","HierDy60oyfcge","sub01 ","01 ","6","rl","test","83","img/b_c_stripes.png","2","83","color,shape,pattern","65","1",""
"null","160384","HierDy60oyfcge","sub01 ","01 ","6","feedback","test","null","","","na","","65","",""
"1022","161407","HierDy60oyfcge","sub01 ","01 ","6","rl","test","72","img/r_c_dots.png","5","72","color,shape,pattern","66","1",""
"null","162410","HierDy60oyfcge","sub01 ","01 ","6","feedback","test","null","","","na","","66","",""
"755","163166","HierDy60oyfcge","sub01 ","01 ","6","rl","test","74","img/r_c_stripes.png","6","74","color,shape,pattern","67","1",""
"null","164169","HierDy60oyfcge","sub01 ","01 ","6","feedback","test","null","","","na","","67","",""
"1441","165611","HierDy60oyfcge","sub01 ","01 ","6","rl","test","68","img/b_s_stripes.png","4","70","color,shape,pattern","68","0",""
"null","166612","HierDy60oyfcge","sub01 ","01 ","6","feedback","test","null","","","na","","68","",""
"886","167497","HierDy60oyfcge","sub01 ","01 ","6","rl","test","75","img/r_s_dots.png","7","75","color,shape,pattern","69","1",""
"null","168498","HierDy60oyfcge","sub01 ","01 ","6","feedback","test","null","","","na","","69","",""
"833","169331","HierDy60oyfcge","sub01 ","01 ","6","rl","test","65","img/b_c_dots.png","1","65","color,shape,pattern","70","1",""
"null","170331","HierDy60oyfcge","sub01 ","01 ","6","feedback","test","null","","","na","","70","",""
"903","171233","HierDy60oyfcge","sub01 ","01 ","6","rl","test","75","img/r_s_dots.png","7","75","color,shape,pattern","71","1",""
"null","172234","HierDy60oyfcge","sub01 ","01 ","6","feedback","test","null","","","na","","71","",""
"821","173055","HierDy60oyfcge","sub01 ","01 ","6","rl","test","68","img/b_s_dots.png","3","68","color,shape,pattern","72","1",""
"null","174056","HierDy60oyfcge","sub01 ","01 ","6","feedback","test","null","","","na","","72","",""
"558.9999999999709","174617","HierDy60oyfcge","sub01 ","01 ","6","rl","test","76","img/r_s_stripes.png","8","76","color,shape,pattern","73","1",""
"null","175618","HierDy60oyfcge","sub01 ","01 ","6","feedback","test","null","","","na","","73","",""
"505","176123","HierDy60oyfcge","sub01 ","01 ","6","rl","test","76","img/r_s_stripes.png","8","76","color,shape,pattern","74","1",""
"null","177125","HierDy60oyfcge","sub01 ","01 ","6","feedback","test","null","","","na","","74","",""
"454","177581","HierDy60oyfcge","sub01 ","01 ","6","rl","test","76","img/b_s_stripes.png","4","70","color,shape,pattern","75","0",""
"null","178582","HierDy60oyfcge","sub01 ","01 ","6","feedback","test","null","","","na","","75","",""
"808.0000000000291","179391","HierDy60oyfcge","sub01 ","01 ","6","rl","test","72","img/r_c_dots.png","5","72","color,shape,pattern","76","1",""
"null","180393","HierDy60oyfcge","sub01 ","01 ","6","feedback","test","null","","","na","","76","",""
"691","181086","HierDy60oyfcge","sub01 ","01 ","6","rl","test","83","img/b_c_stripes.png","2","83","color,shape,pattern","77","1",""
"null","182088","HierDy60oyfcge","sub01 ","01 ","6","feedback","test","null","","","na","","77","",""
"689","182777","HierDy60oyfcge","sub01 ","01 ","6","rl","test","74","img/r_c_stripes.png","6","74","color,shape,pattern","78","1",""
"null","183779","HierDy60oyfcge","sub01 ","01 ","6","feedback","test","null","","","na","","78","",""
"604","184384","HierDy60oyfcge","sub01 ","01 ","6","rl","test","83","img/b_c_stripes.png","2","83","color,shape,pattern","79","1",""
"null","185385","HierDy60oyfcge","sub01 ","01 ","6","feedback","test","null","","","na","","79","",""
"715","186101","HierDy60oyfcge","sub01 ","01 ","6","rl","test","68","img/b_s_dots.png","3","68","color,shape,pattern","80","1",""
"null","187102","HierDy60oyfcge","sub01 ","01 ","6","feedback","test","null","","","na","","80","",""
"1382","188484","HierDy60oyfcge","sub01 ","01 ","6","rl","test","74","img/r_c_stripes.png","6","74","color,shape,pattern","81","1",""
"null","189487","HierDy60oyfcge","sub01 ","01 ","6","feedback","test","null","","","na","","81","",""
"1520","191007","HierDy60oyfcge","sub01 ","01 ","6","rl","test","65","img/b_c_dots.png","1","65","color,shape,pattern","82","1",""
"null","192010","HierDy60oyfcge","sub01 ","01 ","6","feedback","test","null","","","na","","82","",""
"434","192445","HierDy60oyfcge","sub01 ","01 ","6","rl","test","65","img/b_c_dots.png","1","65","color,shape,pattern","83","1",""
"null","193447","HierDy60oyfcge","sub01 ","01 ","6","feedback","test","null","","","na","","83","",""
"1467","194915","HierDy60oyfcge","sub01 ","01 ","6","rl","test","75","img/r_s_dots.png","7","75","color,shape,pattern","84","1",""
"null","195917","HierDy60oyfcge","sub01 ","01 ","6","feedback","test","null","","","na","","84","",""
"564","196481","HierDy60oyfcge","sub01 ","01 ","6","rl","test","68","img/b_s_dots.png","3","68","color,shape,pattern","85","1",""
"null","197484","HierDy60oyfcge","sub01 ","01 ","6","feedback","test","null","","","na","","85","",""
"740","198224","HierDy60oyfcge","sub01 ","01 ","6","rl","test","83","img/b_c_dots.png","1","65","color,shape,pattern","86","0",""
"null","199226","HierDy60oyfcge","sub01 ","01 ","6","feedback","test","null","","","na","","86","",""
"713","199940","HierDy60oyfcge","sub01 ","01 ","6","rl","test","76","img/r_s_stripes.png","8","76","color,shape,pattern","87","1",""
"null","200942","HierDy60oyfcge","sub01 ","01 ","6","feedback","test","null","","","na","","87","",""
"627","201570","HierDy60oyfcge","sub01 ","01 ","6","rl","test","70","img/b_s_stripes.png","4","70","color,shape,pattern","88","1",""
"null","202573","HierDy60oyfcge","sub01 ","01 ","6","feedback","test","null","","","na","","88","",""
"659","203233","HierDy60oyfcge","sub01 ","01 ","6","rl","test","68","img/b_s_dots.png","3","68","color,shape,pattern","89","1",""
"null","204236","HierDy60oyfcge","sub01 ","01 ","6","feedback","test","null","","","na","","89","",""
"995","205232","HierDy60oyfcge","sub01 ","01 ","6","rl","test","72","img/r_c_dots.png","5","72","color,shape,pattern","90","1",""
"null","206234","HierDy60oyfcge","sub01 ","01 ","6","feedback","test","null","","","na","","90","",""
"669.0000000000291","206904","HierDy60oyfcge","sub01 ","01 ","6","rl","test","76","img/r_s_stripes.png","8","76","color,shape,pattern","91","1",""
"null","207907","HierDy60oyfcge","sub01 ","01 ","6","feedback","test","null","","","na","","91","",""
"743","208652","HierDy60oyfcge","sub01 ","01 ","6","rl","test","75","img/r_s_dots.png","7","75","color,shape,pattern","92","1",""
"null","209654","HierDy60oyfcge","sub01 ","01 ","6","feedback","test","null","","","na","","92","",""
"860","210515","HierDy60oyfcge","sub01 ","01 ","6","rl","test","83","img/b_c_stripes.png","2","83","color,shape,pattern","93","1",""
"null","211518","HierDy60oyfcge","sub01 ","01 ","6","feedback","test","null","","","na","","93","",""
"1176","212695","HierDy60oyfcge","sub01 ","01 ","6","rl","test","70","img/b_s_stripes.png","4","70","color,shape,pattern","94","1",""
"null","213698","HierDy60oyfcge","sub01 ","01 ","6","feedback","test","null","","","na","","94","",""
"724","214422","HierDy60oyfcge","sub01 ","01 ","6","rl","test","72","img/r_c_dots.png","5","72","color,shape,pattern","95","1",""
"null","215425","HierDy60oyfcge","sub01 ","01 ","6","feedback","test","null","","","na","","95","",""
"1465.000000000029","216891","HierDy60oyfcge","sub01 ","01 ","6","rl","test","74","img/r_c_stripes.png","6","74","color,shape,pattern","96","1",""
"null","217894","HierDy60oyfcge","sub01 ","01 ","6","feedback","test","null","","","na","","96","",""
"656","218552","HierDy60oyfcge","sub01 ","01 ","6","rl","test","72","img/r_c_dots.png","5","72","color,shape,pattern","97","1",""
"null","219554","HierDy60oyfcge","sub01 ","01 ","6","feedback","test","null","","","na","","97","",""
"635","220190","HierDy60oyfcge","sub01 ","01 ","6","rl","test","75","img/r_s_dots.png","7","75","color,shape,pattern","98","1",""
"null","221193","HierDy60oyfcge","sub01 ","01 ","6","feedback","test","null","","","na","","98","",""
"586","221780","HierDy60oyfcge","sub01 ","01 ","6","rl","test","68","img/b_s_dots.png","3","68","color,shape,pattern","99","1",""
"null","222783","HierDy60oyfcge","sub01 ","01 ","6","feedback","test","null","","","na","","99","",""
"883.9999999999709","223668","HierDy60oyfcge","sub01 ","01 ","6","rl","test","83","img/b_c_stripes.png","2","83","color,shape,pattern","100","1",""
"null","224670","HierDy60oyfcge","sub01 ","01 ","6","feedback","test","null","","","na","","100","",""
"587.9999999999709","225259","HierDy60oyfcge","sub01 ","01 ","6","rl","test","65","img/b_c_dots.png","1","65","color,shape,pattern","101","1",""
"null","226262","HierDy60oyfcge","sub01 ","01 ","6","feedback","test","null","","","na","","101","",""
"1310","227573","HierDy60oyfcge","sub01 ","01 ","6","rl","test","76","img/r_s_stripes.png","8","76","color,shape,pattern","102","1",""
"null","228575","HierDy60oyfcge","sub01 ","01 ","6","feedback","test","null","","","na","","102","",""
"500","229077","HierDy60oyfcge","sub01 ","01 ","6","rl","test","70","img/b_s_stripes.png","4","70","color,shape,pattern","103","1",""
"null","230079","HierDy60oyfcge","sub01 ","01 ","6","feedback","test","null","","","na","","103","",""
"804.0000000000291","230884","HierDy60oyfcge","sub01 ","01 ","6","rl","test","76","img/b_s_stripes.png","4","70","color,shape,pattern","104","0",""
"null","231887","HierDy60oyfcge","sub01 ","01 ","6","feedback","test","null","","","na","","104","",""
"1363","233250","HierDy60oyfcge","sub01 ","01 ","6","rl","test","72","img/r_c_stripes.png","6","74","color,shape,pattern","105","0",""
"null","234252","HierDy60oyfcge","sub01 ","01 ","6","feedback","test","null","","","na","","105","",""
"701","234953","HierDy60oyfcge","sub01 ","01 ","6","rl","test","83","img/b_c_stripes.png","2","83","color,shape,pattern","106","1",""
"null","235956","HierDy60oyfcge","sub01 ","01 ","6","feedback","test","null","","","na","","106","",""
"612.0000000000291","236570","HierDy60oyfcge","sub01 ","01 ","6","rl","test","70","img/r_s_stripes.png","8","76","color,shape,pattern","107","0",""
"null","237572","HierDy60oyfcge","sub01 ","01 ","6","feedback","test","null","","","na","","107","",""
"875","238449","HierDy60oyfcge","sub01 ","01 ","6","rl","test","65","img/b_c_dots.png","1","65","color,shape,pattern","108","1",""
"null","239451","HierDy60oyfcge","sub01 ","01 ","6","feedback","test","null","","","na","","108","",""
"1340","240792","HierDy60oyfcge","sub01 ","01 ","6","rl","test","75","img/r_s_dots.png","7","75","color,shape,pattern","109","1",""
"null","241795","HierDy60oyfcge","sub01 ","01 ","6","feedback","test","null","","","na","","109","",""
"777","242574","HierDy60oyfcge","sub01 ","01 ","6","rl","test","72","img/r_c_dots.png","5","72","color,shape,pattern","110","1",""
"null","243576","HierDy60oyfcge","sub01 ","01 ","6","feedback","test","null","","","na","","110","",""
"697","244275","HierDy60oyfcge","sub01 ","01 ","6","rl","test","68","img/b_s_dots.png","3","68","color,shape,pattern","111","1",""
"null","245277","HierDy60oyfcge","sub01 ","01 ","6","feedback","test","null","","","na","","111","",""
"799","246077","HierDy60oyfcge","sub01 ","01 ","6","rl","test","74","img/r_c_stripes.png","6","74","color,shape,pattern","112","1",""
"null","247080","HierDy60oyfcge","sub01 ","01 ","6","feedback","test","null","","","na","","112","",""
"822.9999999999709","247904","HierDy60oyfcge","sub01 ","01 ","6","rl","test","68","img/b_s_dots.png","3","68","color,shape,pattern","113","1",""
"null","248907","HierDy60oyfcge","sub01 ","01 ","6","feedback","test","null","","","na","","113","",""
"855.9999999999709","249765","HierDy60oyfcge","sub01 ","01 ","6","rl","test","72","img/r_c_dots.png","5","72","color,shape,pattern","114","1",""
"null","250766","HierDy60oyfcge","sub01 ","01 ","6","feedback","test","null","","","na","","114","",""
"678","251445","HierDy60oyfcge","sub01 ","01 ","6","rl","test","74","img/r_c_stripes.png","6","74","color,shape,pattern","115","1",""
"null","252447","HierDy60oyfcge","sub01 ","01 ","6","feedback","test","null","","","na","","115","",""
"979","253426","HierDy60oyfcge","sub01 ","01 ","6","rl","test","65","img/b_c_dots.png","1","65","color,shape,pattern","116","1",""
"null","254429","HierDy60oyfcge","sub01 ","01 ","6","feedback","test","null","","","na","","116","",""
"1256.000000000029","255686","HierDy60oyfcge","sub01 ","01 ","6","rl","test","76","img/r_s_stripes.png","8","76","color,shape,pattern","117","1",""
"null","256689","HierDy60oyfcge","sub01 ","01 ","6","feedback","test","null","","","na","","117","",""
"882.0000000000291","257572","HierDy60oyfcge","sub01 ","01 ","6","rl","test","70","img/b_s_stripes.png","4","70","color,shape,pattern","118","1",""
"null","258575","HierDy60oyfcge","sub01 ","01 ","6","feedback","test","null","","","na","","118","",""
"586","259162","HierDy60oyfcge","sub01 ","01 ","6","rl","test","76","img/b_s_stripes.png","4","70","color,shape,pattern","119","0",""
"null","260164","HierDy60oyfcge","sub01 ","01 ","6","feedback","test","null","","","na","","119","",""
"709","260874","HierDy60oyfcge","sub01 ","01 ","6","rl","test","74","img/b_c_stripes.png","2","83","color,shape,pattern","120","0",""
"null","261876","HierDy60oyfcge","sub01 ","01 ","6","feedback","test","null","","","na","","120","",""
"1302","263179","HierDy60oyfcge","sub01 ","01 ","6","rl","test","75","img/r_s_dots.png","7","75","color,shape,pattern","121","1",""
"null","264181","HierDy60oyfcge","sub01 ","01 ","6","feedback","test","null","","","na","","121","",""
"719","264902","HierDy60oyfcge","sub01 ","01 ","6","rl","test","83","img/b_c_stripes.png","2","83","color,shape,pattern","122","1",""
"null","265903","HierDy60oyfcge","sub01 ","01 ","6","feedback","test","null","","","na","","122","",""
"1103","267007","HierDy60oyfcge","sub01 ","01 ","6","rl","test","76","img/r_s_stripes.png","8","76","color,shape,pattern","123","1",""
"null","268010","HierDy60oyfcge","sub01 ","01 ","6","feedback","test","null","","","na","","123","",""
"1058","269069","HierDy60oyfcge","sub01 ","01 ","6","rl","test","68","img/b_s_dots.png","3","68","color,shape,pattern","124","1",""
"null","270072","HierDy60oyfcge","sub01 ","01 ","6","feedback","test","null","","","na","","124","",""
"554","270627","HierDy60oyfcge","sub01 ","01 ","6","rl","test","65","img/b_c_dots.png","1","65","color,shape,pattern","125","1",""
"null","271629","HierDy60oyfcge","sub01 ","01 ","6","feedback","test","null","","","na","","125","",""
"1405.0000000000582","273036","HierDy60oyfcge","sub01 ","01 ","6","rl","test","74","img/r_s_dots.png","7","75","color,shape,pattern","126","0",""
"null","274038","HierDy60oyfcge","sub01 ","01 ","6","feedback","test","null","","","na","","126","",""
"797","274837","HierDy60oyfcge","sub01 ","01 ","6","rl","test","72","img/r_c_dots.png","5","72","color,shape,pattern","127","1",""
"null","275839","HierDy60oyfcge","sub01 ","01 ","6","feedback","test","null","","","na","","127","",""
"636","276476","HierDy60oyfcge","sub01 ","01 ","6","rl","test","65","img/r_c_dots.png","5","72","color,shape,pattern","128","0",""
"null","277479","HierDy60oyfcge","sub01 ","01 ","6","feedback","test","null","","","na","","128","",""
"554","278034","HierDy60oyfcge","sub01 ","01 ","6","rl","test","70","img/b_s_stripes.png","4","70","color,shape,pattern","129","1",""
"null","279036","HierDy60oyfcge","sub01 ","01 ","6","feedback","test","null","","","na","","129","",""
"661","279698","HierDy60oyfcge","sub01 ","01 ","6","rl","test","74","img/r_c_stripes.png","6","74","color,shape,pattern","130","1",""
"null","280700","HierDy60oyfcge","sub01 ","01 ","6","feedback","test","null","","","na","","130","",""
"731","281433","HierDy60oyfcge","sub01 ","01 ","6","rl","test","70","img/r_s_stripes.png","8","76","color,shape,pattern","131","0",""
"null","282434","HierDy60oyfcge","sub01 ","01 ","6","feedback","test","null","","","na","","131","",""
"650.9999999999418","283086","HierDy60oyfcge","sub01 ","01 ","6","rl","test","74","img/b_c_stripes.png","2","83","color,shape,pattern","132","0",""
"null","284089","HierDy60oyfcge","sub01 ","01 ","6","feedback","test","null","","","na","","132","",""
"790","284880","HierDy60oyfcge","sub01 ","01 ","6","rl","test","74","img/r_c_stripes.png","6","74","color,shape,pattern","133","1",""
"null","285883","HierDy60oyfcge","sub01 ","01 ","6","feedback","test","null","","","na","","133","",""
"654","286538","HierDy60oyfcge","sub01 ","01 ","6","rl","test","83","img/b_c_dots.png","1","65","color,shape,pattern","134","0",""
"null","287540","HierDy60oyfcge","sub01 ","01 ","6","feedback","test","null","","","na","","134","",""
"984","288526","HierDy60oyfcge","sub01 ","01 ","6","rl","test","76","img/r_s_stripes.png","8","76","color,shape,pattern","135","1",""
"null","289528","HierDy60oyfcge","sub01 ","01 ","6","feedback","test","null","","","na","","135","",""
"953.0000000000582","290483","HierDy60oyfcge","sub01 ","01 ","6","rl","test","68","img/b_s_dots.png","3","68","color,shape,pattern","136","1",""
"null","291485","HierDy60oyfcge","sub01 ","01 ","6","feedback","test","null","","","na","","136","",""
"1064","292551","HierDy60oyfcge","sub01 ","01 ","6","rl","test","75","img/r_s_dots.png","7","75","color,shape,pattern","137","1",""
"null","293553","HierDy60oyfcge","sub01 ","01 ","6","feedback","test","null","","","na","","137","",""
"1125","294681","HierDy60oyfcge","sub01 ","01 ","6","rl","test","65","img/b_c_dots.png","1","65","color,shape,pattern","138","1",""
"null","295683","HierDy60oyfcge","sub01 ","01 ","6","feedback","test","null","","","na","","138","",""
"972","296656","HierDy60oyfcge","sub01 ","01 ","6","rl","test","68","img/b_s_dots.png","3","68","color,shape,pattern","139","1",""
"null","297658","HierDy60oyfcge","sub01 ","01 ","6","feedback","test","null","","","na","","139","",""
"707","298367","HierDy60oyfcge","sub01 ","01 ","6","rl","test","83","img/b_c_stripes.png","2","83","color,shape,pattern","140","1",""
"null","299369","HierDy60oyfcge","sub01 ","01 ","6","feedback","test","null","","","na","","140","",""
"917","300288","HierDy60oyfcge","sub01 ","01 ","6","rl","test","72","img/r_c_dots.png","5","72","color,shape,pattern","141","1",""
"null","301290","HierDy60oyfcge","sub01 ","01 ","6","feedback","test","null","","","na","","141","",""
"685","301976","HierDy60oyfcge","sub01 ","01 ","6","rl","test","68","img/r_s_dots.png","7","75","color,shape,pattern","142","0",""
"null","302977","HierDy60oyfcge","sub01 ","01 ","6","feedback","test","null","","","na","","142","",""
"1059","304037","HierDy60oyfcge","sub01 ","01 ","6","rl","test","70","img/b_s_stripes.png","4","70","color,shape,pattern","143","1",""
"null","305039","HierDy60oyfcge","sub01 ","01 ","6","feedback","test","null","","","na","","143","",""
"952","305993","HierDy60oyfcge","sub01 ","01 ","6","rl","test","74","img/r_c_stripes.png","6","74","color,shape,pattern","144","1",""
"null","306995","HierDy60oyfcge","sub01 ","01 ","6","feedback","test","null","","","na","","144","",""
"430","307426","HierDy60oyfcge","sub01 ","01 ","6","rl","test","74","img/r_c_stripes.png","6","74","color,shape,pattern","145","1",""
"null","308428","HierDy60oyfcge","sub01 ","01 ","6","feedback","test","null","","","na","","145","",""
"451","308881","HierDy60oyfcge","sub01 ","01 ","6","rl","test","74","img/b_c_stripes.png","2","83","color,shape,pattern","146","0",""
"null","309884","HierDy60oyfcge","sub01 ","01 ","6","feedback","test","null","","","na","","146","",""
"559","310444","HierDy60oyfcge","sub01 ","01 ","6","rl","test","74","img/r_c_stripes.png","6","74","color,shape,pattern","147","1",""
"null","311447","HierDy60oyfcge","sub01 ","01 ","6","feedback","test","null","","","na","","147","",""
"933","312381","HierDy60oyfcge","sub01 ","01 ","6","rl","test","72","img/r_c_dots.png","5","72","color,shape,pattern","148","1",""
"null","313384","HierDy60oyfcge","sub01 ","01 ","6","feedback","test","null","","","na","","148","",""
"739","314124","HierDy60oyfcge","sub01 ","01 ","6","rl","test","70","img/b_s_stripes.png","4","70","color,shape,pattern","149","1",""
"null","315126","HierDy60oyfcge","sub01 ","01 ","6","feedback","test","null","","","na","","149","",""
"626","315752","HierDy60oyfcge","sub01 ","01 ","6","rl","test","76","img/r_s_stripes.png","8","76","color,shape,pattern","150","1",""
"null","316754","HierDy60oyfcge","sub01 ","01 ","6","feedback","test","null","","","na","","150","",""
"727","317482","HierDy60oyfcge","sub01 ","01 ","6","rl","test","75","img/r_s_dots.png","7","75","color,shape,pattern","151","1",""
"null","318484","HierDy60oyfcge","sub01 ","01 ","6","feedback","test","null","","","na","","151","",""
"707","319192","HierDy60oyfcge","sub01 ","01 ","6","rl","test","75","img/b_s_dots.png","3","68","color,shape,pattern","152","0",""
"null","320195","HierDy60oyfcge","sub01 ","01 ","6","feedback","test","null","","","na","","152","",""
"767","320963","HierDy60oyfcge","sub01 ","01 ","6","rl","test","72","img/b_c_dots.png","1","65","color,shape,pattern","153","0",""
"null","321966","HierDy60oyfcge","sub01 ","01 ","6","feedback","test","null","","","na","","153","",""
"1490","323457","HierDy60oyfcge","sub01 ","01 ","6","rl","test","70","img/b_s_stripes.png","4","70","color,shape,pattern","154","1",""
"null","324460","HierDy60oyfcge","sub01 ","01 ","6","feedback","test","null","","","na","","154","",""
"1044","325505","HierDy60oyfcge","sub01 ","01 ","6","rl","test","75","img/r_s_dots.png","7","75","color,shape,pattern","155","1",""
"null","326508","HierDy60oyfcge","sub01 ","01 ","6","feedback","test","null","","","na","","155","",""
"1456","327965","HierDy60oyfcge","sub01 ","01 ","6","rl","test","83","img/b_c_stripes.png","2","83","color,shape,pattern","156","1",""
"null","328967","HierDy60oyfcge","sub01 ","01 ","6","feedback","test","null","","","na","","156","",""
"1316","330285","HierDy60oyfcge","sub01 ","01 ","6","rl","test","76","img/r_s_stripes.png","8","76","color,shape,pattern","157","1",""
"null","331288","HierDy60oyfcge","sub01 ","01 ","6","feedback","test","null","","","na","","157","",""
"927","332216","HierDy60oyfcge","sub01 ","01 ","6","rl","test","68","img/b_c_stripes.png","2","83","color,shape,pattern","158","0",""
"null","333218","HierDy60oyfcge","sub01 ","01 ","6","feedback","test","null","","","na","","158","",""
"689","333908","HierDy60oyfcge","sub01 ","01 ","6","rl","test","83","img/r_c_stripes.png","6","74","color,shape,pattern","159","0",""
"null","334911","HierDy60oyfcge","sub01 ","01 ","6","feedback","test","null","","","na","","159","",""
"971","335883","HierDy60oyfcge","sub01 ","01 ","6","rl","test","68","img/b_s_dots.png","3","68","color,shape,pattern","160","1",""
"null","336886","HierDy60oyfcge","sub01 ","01 ","6","feedback","test","null","","","na","","160","",""
"794.9999999999418","337682","HierDy60oyfcge","sub01 ","01 ","6","rl","test","72","img/r_c_dots.png","5","72","color,shape,pattern","161","1",""
"null","338684","HierDy60oyfcge","sub01 ","01 ","6","feedback","test","null","","","na","","161","",""
"594","339280","HierDy60oyfcge","sub01 ","01 ","6","rl","test","72","img/r_c_dots.png","5","72","color,shape,pattern","162","1",""
"null","340282","HierDy60oyfcge","sub01 ","01 ","6","feedback","test","null","","","na","","162","",""
"722","341005","HierDy60oyfcge","sub01 ","01 ","6","rl","test","65","img/b_c_dots.png","1","65","color,shape,pattern","163","1",""
"null","342007","HierDy60oyfcge","sub01 ","01 ","6","feedback","test","null","","","na","","163","",""
"566","342575","HierDy60oyfcge","sub01 ","01 ","6","rl","test","65","img/b_c_dots.png","1","65","color,shape,pattern","164","1",""
"null","343577","HierDy60oyfcge","sub01 ","01 ","6","feedback","test","null","","","na","","164","",""
"706","344284","HierDy60oyfcge","sub01 ","01 ","6","rl","test","70","img/b_s_stripes.png","4","70","color,shape,pattern","165","1",""
"null","345286","HierDy60oyfcge","sub01 ","01 ","6","feedback","test","null","","","na","","165","",""
"534.0000000000582","345822","HierDy60oyfcge","sub01 ","01 ","6","rl","test","76","img/r_s_stripes.png","8","76","color,shape,pattern","166","1",""
"null","346824","HierDy60oyfcge","sub01 ","01 ","6","feedback","test","null","","","na","","166","",""
"641","347467","HierDy60oyfcge","sub01 ","01 ","6","rl","test","75","img/r_s_dots.png","7","75","color,shape,pattern","167","1",""
"null","348469","HierDy60oyfcge","sub01 ","01 ","6","feedback","test","null","","","na","","167","",""
"899","349370","HierDy60oyfcge","sub01 ","01 ","6","rl","test","68","img/b_s_dots.png","3","68","color,shape,pattern","168","1",""
"null","350373","HierDy60oyfcge","sub01 ","01 ","6","feedback","test","null","","","na","","168","",""
"954","351328","HierDy60oyfcge","sub01 ","01 ","6","rl","test","76","img/r_s_stripes.png","8","76","color,shape,pattern","169","1",""
"null","352331","HierDy60oyfcge","sub01 ","01 ","6","feedback","test","null","","","na","","169","",""
"606","352938","HierDy60oyfcge","sub01 ","01 ","6","rl","test","68","img/b_s_dots.png","3","68","color,shape,pattern","170","1",""
"null","353940","HierDy60oyfcge","sub01 ","01 ","6","feedback","test","null","","","na","","170","",""
"805","354747","HierDy60oyfcge","sub01 ","01 ","6","rl","test","75","img/r_s_dots.png","7","75","color,shape,pattern","171","1",""
"null","355749","HierDy60oyfcge","sub01 ","01 ","6","feedback","test","null","","","na","","171","",""
"943","356694","HierDy60oyfcge","sub01 ","01 ","6","rl","test","83","img/b_c_stripes.png","2","83","color,shape,pattern","172","1",""
"null","357696","HierDy60oyfcge","sub01 ","01 ","6","feedback","test","null","","","na","","172","",""
"1175","358873","HierDy60oyfcge","sub01 ","01 ","6","rl","test","74","img/r_c_stripes.png","6","74","color,shape,pattern","173","1",""
"null","359875","HierDy60oyfcge","sub01 ","01 ","6","feedback","test","null","","","na","","173","",""
"758","360635","HierDy60oyfcge","sub01 ","01 ","6","rl","test","75","img/r_s_dots.png","7","75","color,shape,pattern","174","1",""
"null","361637","HierDy60oyfcge","sub01 ","01 ","6","feedback","test","null","","","na","","174","",""
"695.0000000000582","362334","HierDy60oyfcge","sub01 ","01 ","6","rl","test","76","img/r_s_stripes.png","8","76","color,shape,pattern","175","1",""
"null","363337","HierDy60oyfcge","sub01 ","01 ","6","feedback","test","null","","","na","","175","",""
"595","363933","HierDy60oyfcge","sub01 ","01 ","6","rl","test","70","img/b_s_stripes.png","4","70","color,shape,pattern","176","1",""
"null","364936","HierDy60oyfcge","sub01 ","01 ","6","feedback","test","null","","","na","","176","",""
"1187.0000000000582","366125","HierDy60oyfcge","sub01 ","01 ","6","rl","test","72","img/r_c_dots.png","5","72","color,shape,pattern","177","1",""
"null","367127","HierDy60oyfcge","sub01 ","01 ","6","feedback","test","null","","","na","","177","",""
"574","367702","HierDy60oyfcge","sub01 ","01 ","6","rl","test","83","img/r_c_stripes.png","6","74","color,shape,pattern","178","0",""
"null","368705","HierDy60oyfcge","sub01 ","01 ","6","feedback","test","null","","","na","","178","",""
"1210","369917","HierDy60oyfcge","sub01 ","01 ","6","rl","test","83","img/b_c_dots.png","1","65","color,shape,pattern","179","0",""
"null","370919","HierDy60oyfcge","sub01 ","01 ","6","feedback","test","null","","","na","","179","",""
"678","371599","HierDy60oyfcge","sub01 ","01 ","6","rl","test","83","img/b_c_stripes.png","2","83","color,shape,pattern","180","1",""
"null","372601","HierDy60oyfcge","sub01 ","01 ","6","feedback","test","null","","","na","","180","",""
"656","373258","HierDy60oyfcge","sub01 ","01 ","6","rl","test","65","img/b_c_dots.png","1","65","color,shape,pattern","181","1",""
"null","374261","HierDy60oyfcge","sub01 ","01 ","6","feedback","test","null","","","na","","181","",""
"2133.999999999942","376395","HierDy60oyfcge","sub01 ","01 ","6","rl","test","70","img/b_s_stripes.png","4","70","color,shape,pattern","182","1",""
"null","377398","HierDy60oyfcge","sub01 ","01 ","6","feedback","test","null","","","na","","182","",""
"479","377879","HierDy60oyfcge","sub01 ","01 ","6","rl","test","68","img/b_s_dots.png","3","68","color,shape,pattern","183","1",""
"null","378881","HierDy60oyfcge","sub01 ","01 ","6","feedback","test","null","","","na","","183","",""
"673","379556","HierDy60oyfcge","sub01 ","01 ","6","rl","test","72","img/r_c_dots.png","5","72","color,shape,pattern","184","1",""
"null","380558","HierDy60oyfcge","sub01 ","01 ","6","feedback","test","null","","","na","","184","",""
"925.9999999999418","381485","HierDy60oyfcge","sub01 ","01 ","6","rl","test","70","img/b_s_stripes.png","4","70","color,shape,pattern","185","1",""
"null","382488","HierDy60oyfcge","sub01 ","01 ","6","feedback","test","null","","","na","","185","",""
"472","382962","HierDy60oyfcge","sub01 ","01 ","6","rl","test","83","img/b_c_dots.png","1","65","color,shape,pattern","186","0",""
"null","383964","HierDy60oyfcge","sub01 ","01 ","6","feedback","test","null","","","na","","186","",""
"634","384599","HierDy60oyfcge","sub01 ","01 ","6","rl","test","68","img/b_s_dots.png","3","68","color,shape,pattern","187","1",""
"null","385601","HierDy60oyfcge","sub01 ","01 ","6","feedback","test","null","","","na","","187","",""
"497","386100","HierDy60oyfcge","sub01 ","01 ","6","rl","test","75","img/r_s_dots.png","7","75","color,shape,pattern","188","1",""
"null","387102","HierDy60oyfcge","sub01 ","01 ","6","feedback","test","null","","","na","","188","",""
"1390","388493","HierDy60oyfcge","sub01 ","01 ","6","rl","test","83","img/b_c_stripes.png","2","83","color,shape,pattern","189","1",""
"null","389495","HierDy60oyfcge","sub01 ","01 ","6","feedback","test","null","","","na","","189","",""
"1091","390587","HierDy60oyfcge","sub01 ","01 ","6","rl","test","76","img/r_s_stripes.png","8","76","color,shape,pattern","190","1",""
"null","391589","HierDy60oyfcge","sub01 ","01 ","6","feedback","test","null","","","na","","190","",""
"1198","392788","HierDy60oyfcge","sub01 ","01 ","6","rl","test","72","img/r_c_dots.png","5","72","color,shape,pattern","191","1",""
"null","393791","HierDy60oyfcge","sub01 ","01 ","6","feedback","test","null","","","na","","191","",""
"1422","395213","HierDy60oyfcge","sub01 ","01 ","6","rl","test","83","img/r_c_stripes.png","6","74","color,shape,pattern","192","0",""
"null","396216","HierDy60oyfcge","sub01 ","01 ","6","feedback","test","null","","","na","","192","",""
"1932","398149","HierDy60oyfcge","sub01 ","01 ","6","rl","test","74","img/r_c_stripes.png","6","74","color,shape,pattern","193","1",""
"null","399152","HierDy60oyfcge","sub01 ","01 ","6","feedback","test","null","","","na","","193","",""
"765","399918","HierDy60oyfcge","sub01 ","01 ","6","rl","test","72","img/r_c_dots.png","5","72","color,shape,pattern","194","1",""
"null","400921","HierDy60oyfcge","sub01 ","01 ","6","feedback","test","null","","","na","","194","",""
"813.9999999999418","401737","HierDy60oyfcge","sub01 ","01 ","6","rl","test","70","img/b_s_stripes.png","4","70","color,shape,pattern","195","1",""
"null","402739","HierDy60oyfcge","sub01 ","01 ","6","feedback","test","null","","","na","","195","",""
"808","403549","HierDy60oyfcge","sub01 ","01 ","6","rl","test","76","img/r_s_stripes.png","8","76","color,shape,pattern","196","1",""
"null","404551","HierDy60oyfcge","sub01 ","01 ","6","feedback","test","null","","","na","","196","",""
"1400","405953","HierDy60oyfcge","sub01 ","01 ","6","rl","test","65","img/b_c_dots.png","1","65","color,shape,pattern","197","1",""
"null","406955","HierDy60oyfcge","sub01 ","01 ","6","feedback","test","null","","","na","","197","",""
"915","407871","HierDy60oyfcge","sub01 ","01 ","6","rl","test","75","img/r_s_dots.png","7","75","color,shape,pattern","198","1",""
"null","408874","HierDy60oyfcge","sub01 ","01 ","6","feedback","test","null","","","na","","198","",""
"583.0000000000582","409458","HierDy60oyfcge","sub01 ","01 ","6","rl","test","75","img/b_s_dots.png","3","68","color,shape,pattern","199","0",""
"null","410461","HierDy60oyfcge","sub01 ","01 ","6","feedback","test","null","","","na","","199","",""
"1110","411572","HierDy60oyfcge","sub01 ","01 ","6","rl","test","83","img/r_c_stripes.png","6","74","color,shape,pattern","200","0",""
"null","412575","HierDy60oyfcge","sub01 ","01 ","6","feedback","test","null","","","na","","200","",""
"461","413037","HierDy60oyfcge","sub01 ","01 ","6","rl","test","83","img/b_c_stripes.png","2","83","color,shape,pattern","201","1",""
"null","414040","HierDy60oyfcge","sub01 ","01 ","6","feedback","test","null","","","na","","201","",""
"572","414614","HierDy60oyfcge","sub01 ","01 ","6","rl","test","65","img/r_c_dots.png","5","72","color,shape,pattern","202","0",""
"null","415616","HierDy60oyfcge","sub01 ","01 ","6","feedback","test","null","","","na","","202","",""
"2195","417812","HierDy60oyfcge","sub01 ","01 ","6","rl","test","68","img/b_s_dots.png","3","68","color,shape,pattern","203","1",""
"null","418815","HierDy60oyfcge","sub01 ","01 ","6","feedback","test","null","","","na","","203","",""
"616.9999999999418","419433","HierDy60oyfcge","sub01 ","01 ","6","rl","test","70","img/b_s_stripes.png","4","70","color,shape,pattern","204","1",""
"null","420436","HierDy60oyfcge","sub01 ","01 ","6","feedback","test","null","","","na","","204","",""
"639","421076","HierDy60oyfcge","sub01 ","01 ","6","rl","test","74","img/b_c_stripes.png","2","83","color,shape,pattern","205","0",""
"null","422078","HierDy60oyfcge","sub01 ","01 ","6","feedback","test","null","","","na","","205","",""
"845","422924","HierDy60oyfcge","sub01 ","01 ","6","rl","test","76","img/r_s_stripes.png","8","76","color,shape,pattern","206","1",""
"null","423926","HierDy60oyfcge","sub01 ","01 ","6","feedback","test","null","","","na","","206","",""
"591","424517","HierDy60oyfcge","sub01 ","01 ","6","rl","test","76","img/r_s_stripes.png","8","76","color,shape,pattern","207","1",""
"null","425520","HierDy60oyfcge","sub01 ","01 ","6","feedback","test","null","","","na","","207","",""
"630","426151","HierDy60oyfcge","sub01 ","01 ","6","rl","test","75","img/b_s_dots.png","3","68","color,shape,pattern","208","0",""
"null","427154","HierDy60oyfcge","sub01 ","01 ","6","feedback","test","null","","","na","","208","",""
"746","427900","HierDy60oyfcge","sub01 ","01 ","6","rl","test","70","img/b_s_stripes.png","4","70","color,shape,pattern","209","1",""
"null","428903","HierDy60oyfcge","sub01 ","01 ","6","feedback","test","null","","","na","","209","",""
"489","429393","HierDy60oyfcge","sub01 ","01 ","6","rl","test","68","img/b_c_dots.png","1","65","color,shape,pattern","210","0",""
"null","430395","HierDy60oyfcge","sub01 ","01 ","6","feedback","test","null","","","na","","210","",""
"858","431255","HierDy60oyfcge","sub01 ","01 ","6","rl","test","75","img/r_s_dots.png","7","75","color,shape,pattern","211","1",""
"null","432257","HierDy60oyfcge","sub01 ","01 ","6","feedback","test","null","","","na","","211","",""
"958","433216","HierDy60oyfcge","sub01 ","01 ","6","rl","test","65","img/b_c_dots.png","1","65","color,shape,pattern","212","1",""
"null","434219","HierDy60oyfcge","sub01 ","01 ","6","feedback","test","null","","","na","","212","",""
"1095","435314","HierDy60oyfcge","sub01 ","01 ","6","rl","test","75","img/r_s_dots.png","7","75","color,shape,pattern","213","1",""
"null","436317","HierDy60oyfcge","sub01 ","01 ","6","feedback","test","null","","","na","","213","",""
"1154","437473","HierDy60oyfcge","sub01 ","01 ","6","rl","test","83","img/r_c_stripes.png","6","74","color,shape,pattern","214","0",""
"null","438475","HierDy60oyfcge","sub01 ","01 ","6","feedback","test","null","","","na","","214","",""
"895","439371","HierDy60oyfcge","sub01 ","01 ","6","rl","test","74","img/r_c_dots.png","5","72","color,shape,pattern","215","0",""
"null","440374","HierDy60oyfcge","sub01 ","01 ","6","feedback","test","null","","","na","","215","",""
"955","441330","HierDy60oyfcge","sub01 ","01 ","6","rl","test","83","img/b_c_stripes.png","2","83","color,shape,pattern","216","1",""
"null","442333","HierDy60oyfcge","sub01 ","01 ","6","feedback","test","null","","","na","","216","",""
"527","442861","HierDy60oyfcge","sub01 ","01 ","6","rl","test","83","img/b_c_stripes.png","2","83","color,shape,pattern","217","1",""
"null","443863","HierDy60oyfcge","sub01 ","01 ","6","feedback","test","null","","","na","","217","",""
"969.0000000000582","444834","HierDy60oyfcge","sub01 ","01 ","6","rl","test","70","img/b_s_stripes.png","4","70","color,shape,pattern","218","1",""
"null","445835","HierDy60oyfcge","sub01 ","01 ","6","feedback","test","null","","","na","","218","",""
"584","446421","HierDy60oyfcge","sub01 ","01 ","6","rl","test","76","img/r_s_stripes.png","8","76","color,shape,pattern","219","1",""
"null","447422","HierDy60oyfcge","sub01 ","01 ","6","feedback","test","null","","","na","","219","",""
"634","448058","HierDy60oyfcge","sub01 ","01 ","6","rl","test","75","img/r_s_dots.png","7","75","color,shape,pattern","220","1",""
"null","449060","HierDy60oyfcge","sub01 ","01 ","6","feedback","test","null","","","na","","220","",""
"818","449879","HierDy60oyfcge","sub01 ","01 ","6","rl","test","75","img/r_c_dots.png","5","72","color,shape,pattern","221","0",""
"null","450881","HierDy60oyfcge","sub01 ","01 ","6","feedback","test","null","","","na","","221","",""
"897","451779","HierDy60oyfcge","sub01 ","01 ","6","rl","test","68","img/r_c_stripes.png","6","74","color,shape,pattern","222","0",""
"null","452782","HierDy60oyfcge","sub01 ","01 ","6","feedback","test","null","","","na","","222","",""
"829","453612","HierDy60oyfcge","sub01 ","01 ","6","rl","test","68","img/b_s_dots.png","3","68","color,shape,pattern","223","1",""
"null","454615","HierDy60oyfcge","sub01 ","01 ","6","feedback","test","null","","","na","","223","",""
"867","455484","HierDy60oyfcge","sub01 ","01 ","6","rl","test","72","img/r_c_dots.png","5","72","color,shape,pattern","224","1",""
"null","456486","HierDy60oyfcge","sub01 ","01 ","6","feedback","test","null","","","na","","224","",""
"900","457387","HierDy60oyfcge","sub01 ","01 ","6","rl","test","83","img/r_c_stripes.png","6","74","color,shape,pattern","225","0",""
"null","458390","HierDy60oyfcge","sub01 ","01 ","6","feedback","test","null","","","na","","225","",""
"1104","459495","HierDy60oyfcge","sub01 ","01 ","6","rl","test","65","img/b_c_dots.png","1","65","color,shape,pattern","226","1",""
"null","460498","HierDy60oyfcge","sub01 ","01 ","6","feedback","test","null","","","na","","226","",""
"557.9999999999418","461057","HierDy60oyfcge","sub01 ","01 ","6","rl","test","83","img/b_c_stripes.png","2","83","color,shape,pattern","227","1",""
"null","462060","HierDy60oyfcge","sub01 ","01 ","6","feedback","test","null","","","na","","227","",""
"985","463046","HierDy60oyfcge","sub01 ","01 ","6","rl","test","68","img/b_s_dots.png","3","68","color,shape,pattern","228","1",""
"null","464049","HierDy60oyfcge","sub01 ","01 ","6","feedback","test","null","","","na","","228","",""
"581.0000000000582","464631","HierDy60oyfcge","sub01 ","01 ","6","rl","test","75","img/r_s_dots.png","7","75","color,shape,pattern","229","1",""
"null","465633","HierDy60oyfcge","sub01 ","01 ","6","feedback","test","null","","","na","","229","",""
"805","466439","HierDy60oyfcge","sub01 ","01 ","6","rl","test","76","img/b_s_stripes.png","4","70","color,shape,pattern","230","0",""
"null","467441","HierDy60oyfcge","sub01 ","01 ","6","feedback","test","null","","","na","","230","",""
"534","467976","HierDy60oyfcge","sub01 ","01 ","6","rl","test","70","img/b_s_stripes.png","4","70","color,shape,pattern","231","1",""
"null","468978","HierDy60oyfcge","sub01 ","01 ","6","feedback","test","null","","","na","","231","",""
"886","469867","HierDy60oyfcge","sub01 ","01 ","6","rl","test","65","img/b_c_dots.png","1","65","color,shape,pattern","232","1",""
"null","470869","HierDy60oyfcge","sub01 ","01 ","6","feedback","test","null","","","na","","232","",""
"709","471579","HierDy60oyfcge","sub01 ","01 ","6","rl","test","83","img/r_c_stripes.png","6","74","color,shape,pattern","233","0",""
"null","472582","HierDy60oyfcge","sub01 ","01 ","6","feedback","test","null","","","na","","233","",""
"795.9999999999418","473379","HierDy60oyfcge","sub01 ","01 ","6","rl","test","76","img/r_s_stripes.png","8","76","color,shape,pattern","234","1",""
"null","474381","HierDy60oyfcge","sub01 ","01 ","6","feedback","test","null","","","na","","234","",""
"864","475247","HierDy60oyfcge","sub01 ","01 ","6","rl","test","74","img/b_s_dots.png","3","68","color,shape,pattern","235","0",""
"null","476249","HierDy60oyfcge","sub01 ","01 ","6","feedback","test","null","","","na","","235","",""
"872","477122","HierDy60oyfcge","sub01 ","01 ","6","rl","test","65","img/b_c_dots.png","1","65","color,shape,pattern","236","1",""
"null","478124","HierDy60oyfcge","sub01 ","01 ","6","feedback","test","null","","","na","","236","",""
"759","478885","HierDy60oyfcge","sub01 ","01 ","6","rl","test","75","img/r_s_dots.png","7","75","color,shape,pattern","237","1",""
"null","479887","HierDy60oyfcge","sub01 ","01 ","6","feedback","test","null","","","na","","237","",""
"1137","481025","HierDy60oyfcge","sub01 ","01 ","6","rl","test","83","img/b_c_stripes.png","2","83","color,shape,pattern","238","1",""
"null","482028","HierDy60oyfcge","sub01 ","01 ","6","feedback","test","null","","","na","","238","",""
"636","482665","HierDy60oyfcge","sub01 ","01 ","6","rl","test","72","img/r_c_dots.png","5","72","color,shape,pattern","239","1",""
"null","483667","HierDy60oyfcge","sub01 ","01 ","6","feedback","test","null","","","na","","239","",""
"535.0000000000582","484203","HierDy60oyfcge","sub01 ","01 ","6","rl","test","76","img/r_s_stripes.png","8","76","color,shape,pattern","240","1",""
"null","485205","HierDy60oyfcge","sub01 ","01 ","6","feedback","test","null","","","na","","240","",""
"943","486150","HierDy60oyfcge","sub01 ","01 ","6","rl","test","72","img/r_c_dots.png","5","72","color,shape,pattern","241","1",""
"null","487152","HierDy60oyfcge","sub01 ","01 ","6","feedback","test","null","","","na","","241","",""
"634","487786","HierDy60oyfcge","sub01 ","01 ","6","rl","test","75","img/r_s_dots.png","7","75","color,shape,pattern","242","1",""
"null","488789","HierDy60oyfcge","sub01 ","01 ","6","feedback","test","null","","","na","","242","",""
"948","489738","HierDy60oyfcge","sub01 ","01 ","6","rl","test","74","img/r_c_stripes.png","6","74","color,shape,pattern","243","1",""
"null","490741","HierDy60oyfcge","sub01 ","01 ","6","feedback","test","null","","","na","","243","",""
"558","491300","HierDy60oyfcge","sub01 ","01 ","6","rl","test","76","img/r_s_stripes.png","8","76","color,shape,pattern","244","1",""
"null","492302","HierDy60oyfcge","sub01 ","01 ","6","feedback","test","null","","","na","","244","",""
"1087.9999999999418","493393","HierDy60oyfcge","sub01 ","01 ","6","rl","test","83","img/b_c_stripes.png","2","83","color,shape,pattern","245","1",""
"null","494395","HierDy60oyfcge","sub01 ","01 ","6","feedback","test","null","","","na","","245","",""
"808","495204","HierDy60oyfcge","sub01 ","01 ","6","rl","test","70","img/b_s_stripes.png","4","70","color,shape,pattern","246","1",""
"null","496207","HierDy60oyfcge","sub01 ","01 ","6","feedback","test","null","","","na","","246","",""
"832.9999999999418","497041","HierDy60oyfcge","sub01 ","01 ","6","rl","test","68","img/b_s_dots.png","3","68","color,shape,pattern","247","1",""
"null","498044","HierDy60oyfcge","sub01 ","01 ","6","feedback","test","null","","","na","","247","",""
"728.0000000000582","498773","HierDy60oyfcge","sub01 ","01 ","6","rl","test","70","img/b_s_stripes.png","4","70","color,shape,pattern","248","1",""
"null","499776","HierDy60oyfcge","sub01 ","01 ","6","feedback","test","null","","","na","","248","",""
"5536","505342","HierDy60oyfcge","sub01 ","01 ","6","","","","","","","","","","{""Q0"":""6""}"
"2618.999999999942","507964","HierDy60oyfcge","sub01 ","01 ","6","","","","","","","","","","{""Q0"":""instinct""}"
"839.0000000000582","508805","HierDy60oyfcge","sub01 ","01 ","6","","","","","","","","","",""
