"rt","time_elapsed","subject","subID","group","day","trialType","phase","key_press","stim","stimNum","corrresp","hierarchy","trialNum","corr","responses"
"2316.699999809265","2319","HierDy0m2mgqzn","sub04","04","5","","","","","","","","","",""
"","7740","HierDy0m2mgqzn","sub04","04","5","fullscreen","","","","","","","","",""
"5149.199999809265","12891","HierDy0m2mgqzn","sub04","04","5","","prac","","","","","","","",""
"846.8999996185303","13742","HierDy0m2mgqzn","sub04","04","5","","","32","","","","","","",""
"497.5","14241","HierDy0m2mgqzn","sub04","04","5","","prac","","","","","","","",""
"null","16756","HierDy0m2mgqzn","sub04","04","5","rl","test","null","img/o_s_stripes.png","2","83","color,pattern,shape","1","0",""
"null","17772","HierDy0m2mgqzn","sub04","04","5","feedback","test","null","","","na","","1","",""
"1446","19221","HierDy0m2mgqzn","sub04","04","5","rl","test","68","img/b_d_check.png","7","75","color,pattern,shape","2","0",""
"null","20238","HierDy0m2mgqzn","sub04","04","5","feedback","test","null","","","na","","2","",""
"1187.5999999046326","21428","HierDy0m2mgqzn","sub04","04","5","rl","test","74","img/b_s_stripes.png","6","74","color,pattern,shape","3","1",""
"null","22442","HierDy0m2mgqzn","sub04","04","5","feedback","test","null","","","na","","3","",""
"946.9000000953674","23391","HierDy0m2mgqzn","sub04","04","5","rl","test","68","img/o_d_check.png","3","68","color,pattern,shape","4","1",""
"null","24398","HierDy0m2mgqzn","sub04","04","5","feedback","test","null","","","na","","4","",""
"903.0999999046326","25303","HierDy0m2mgqzn","sub04","04","5","rl","test","75","img/o_d_stripes.png","1","65","color,pattern,shape","5","0",""
"null","26306","HierDy0m2mgqzn","sub04","04","5","feedback","test","null","","","na","","5","",""
"1263","27571","HierDy0m2mgqzn","sub04","04","5","rl","test","70","img/o_s_check.png","4","70","color,pattern,shape","6","1",""
"null","28592","HierDy0m2mgqzn","sub04","04","5","feedback","test","null","","","na","","6","",""
"972.1999998092651","29566","HierDy0m2mgqzn","sub04","04","5","rl","test","74","img/b_s_stripes.png","6","74","color,pattern,shape","7","1",""
"null","30574","HierDy0m2mgqzn","sub04","04","5","feedback","test","null","","","na","","7","",""
"945.8000001907349","31522","HierDy0m2mgqzn","sub04","04","5","rl","test","75","img/b_s_check.png","8","76","color,pattern,shape","8","0",""
"null","32542","HierDy0m2mgqzn","sub04","04","5","feedback","test","null","","","na","","8","",""
"798.2000002861023","33342","HierDy0m2mgqzn","sub04","04","5","rl","test","68","img/b_d_stripes.png","5","72","color,pattern,shape","9","0",""
"null","34357","HierDy0m2mgqzn","sub04","04","5","feedback","test","null","","","na","","9","",""
"788","35147","HierDy0m2mgqzn","sub04","04","5","rl","test","70","img/o_d_check.png","3","68","color,pattern,shape","10","0",""
"null","36155","HierDy0m2mgqzn","sub04","04","5","feedback","test","null","","","na","","10","",""
"884.7000002861023","37042","HierDy0m2mgqzn","sub04","04","5","rl","test","74","img/b_d_stripes.png","5","72","color,pattern,shape","11","0",""
"null","38053","HierDy0m2mgqzn","sub04","04","5","feedback","test","null","","","na","","11","",""
"2171.7999997138977","40227","HierDy0m2mgqzn","sub04","04","5","rl","test","83","img/o_s_stripes.png","2","83","color,pattern,shape","12","1",""
"null","41248","HierDy0m2mgqzn","sub04","04","5","feedback","test","null","","","na","","12","",""
"1292.8000001907349","42542","HierDy0m2mgqzn","sub04","04","5","rl","test","70","img/o_d_check.png","3","68","color,pattern,shape","13","0",""
"null","43556","HierDy0m2mgqzn","sub04","04","5","feedback","test","null","","","na","","13","",""
"1426.6999998092651","44985","HierDy0m2mgqzn","sub04","04","5","rl","test","72","img/o_d_stripes.png","1","65","color,pattern,shape","14","0",""
"null","46002","HierDy0m2mgqzn","sub04","04","5","feedback","test","null","","","na","","14","",""
"1489.9000000953674","47493","HierDy0m2mgqzn","sub04","04","5","rl","test","75","img/b_d_check.png","7","75","color,pattern,shape","15","1",""
"null","48507","HierDy0m2mgqzn","sub04","04","5","feedback","test","null","","","na","","15","",""
"742.0999999046326","49251","HierDy0m2mgqzn","sub04","04","5","rl","test","75","img/b_s_check.png","8","76","color,pattern,shape","16","0",""
"null","50264","HierDy0m2mgqzn","sub04","04","5","feedback","test","null","","","na","","16","",""
"1235.2999997138977","51501","HierDy0m2mgqzn","sub04","04","5","rl","test","70","img/o_s_check.png","4","70","color,pattern,shape","17","1",""
"null","52507","HierDy0m2mgqzn","sub04","04","5","feedback","test","null","","","na","","17","",""
"983.3000001907349","53492","HierDy0m2mgqzn","sub04","04","5","rl","test","70","img/o_s_check.png","4","70","color,pattern,shape","18","1",""
"null","54508","HierDy0m2mgqzn","sub04","04","5","feedback","test","null","","","na","","18","",""
"2014.4000000953674","56525","HierDy0m2mgqzn","sub04","04","5","rl","test","72","img/o_s_stripes.png","2","83","color,pattern,shape","19","0",""
"null","57539","HierDy0m2mgqzn","sub04","04","5","feedback","test","null","","","na","","19","",""
"627","58166","HierDy0m2mgqzn","sub04","04","5","rl","test","74","img/b_s_check.png","8","76","color,pattern,shape","20","0",""
"null","59188","HierDy0m2mgqzn","sub04","04","5","feedback","test","null","","","na","","20","",""
"null","61704","HierDy0m2mgqzn","sub04","04","5","rl","test","null","img/b_s_stripes.png","6","74","color,pattern,shape","21","0",""
"null","62718","HierDy0m2mgqzn","sub04","04","5","feedback","test","null","","","na","","21","",""
"1019.7000002861023","63740","HierDy0m2mgqzn","sub04","04","5","rl","test","72","img/o_d_stripes.png","1","65","color,pattern,shape","22","0",""
"null","64744","HierDy0m2mgqzn","sub04","04","5","feedback","test","null","","","na","","22","",""
"446.59999990463257","65194","HierDy0m2mgqzn","sub04","04","5","rl","test","74","img/b_d_stripes.png","5","72","color,pattern,shape","23","0",""
"null","66213","HierDy0m2mgqzn","sub04","04","5","feedback","test","null","","","na","","23","",""
"775","66990","HierDy0m2mgqzn","sub04","04","5","rl","test","74","img/b_d_check.png","7","75","color,pattern,shape","24","0",""
"null","68005","HierDy0m2mgqzn","sub04","04","5","feedback","test","null","","","na","","24","",""
"1242.4000000953674","69249","HierDy0m2mgqzn","sub04","04","5","rl","test","74","img/b_d_stripes.png","5","72","color,pattern,shape","25","0",""
"null","70272","HierDy0m2mgqzn","sub04","04","5","feedback","test","null","","","na","","25","",""
"520","70794","HierDy0m2mgqzn","sub04","04","5","rl","test","75","img/b_s_stripes.png","6","74","color,pattern,shape","26","0",""
"null","71803","HierDy0m2mgqzn","sub04","04","5","feedback","test","null","","","na","","26","",""
"416.30000019073486","72222","HierDy0m2mgqzn","sub04","04","5","rl","test","83","img/o_d_check.png","3","68","color,pattern,shape","27","0",""
"null","73230","HierDy0m2mgqzn","sub04","04","5","feedback","test","null","","","na","","27","",""
"1376.5","74608","HierDy0m2mgqzn","sub04","04","5","rl","test","65","img/o_d_stripes.png","1","65","color,pattern,shape","28","1",""
"null","75629","HierDy0m2mgqzn","sub04","04","5","feedback","test","null","","","na","","28","",""
"957.8000001907349","76589","HierDy0m2mgqzn","sub04","04","5","rl","test","83","img/o_s_stripes.png","2","83","color,pattern,shape","29","1",""
"null","77595","HierDy0m2mgqzn","sub04","04","5","feedback","test","null","","","na","","29","",""
"710.5","78308","HierDy0m2mgqzn","sub04","04","5","rl","test","83","img/o_s_stripes.png","2","83","color,pattern,shape","30","1",""
"null","79313","HierDy0m2mgqzn","sub04","04","5","feedback","test","null","","","na","","30","",""
"675.5","79990","HierDy0m2mgqzn","sub04","04","5","rl","test","68","img/o_s_check.png","4","70","color,pattern,shape","31","0",""
"null","81005","HierDy0m2mgqzn","sub04","04","5","feedback","test","null","","","na","","31","",""
"802.5999999046326","81809","HierDy0m2mgqzn","sub04","04","5","rl","test","70","img/o_s_check.png","4","70","color,pattern,shape","32","1",""
"null","82821","HierDy0m2mgqzn","sub04","04","5","feedback","test","null","","","na","","32","",""
"1150.2999997138977","83973","HierDy0m2mgqzn","sub04","04","5","rl","test","75","img/b_s_check.png","8","76","color,pattern,shape","33","0",""
"null","84993","HierDy0m2mgqzn","sub04","04","5","feedback","test","null","","","na","","33","",""
"363","85358","HierDy0m2mgqzn","sub04","04","5","rl","test","76","img/b_d_check.png","7","75","color,pattern,shape","34","0",""
"null","86373","HierDy0m2mgqzn","sub04","04","5","feedback","test","null","","","na","","34","",""
"995.1000003814697","87369","HierDy0m2mgqzn","sub04","04","5","rl","test","75","img/o_d_stripes.png","1","65","color,pattern,shape","35","0",""
"null","88389","HierDy0m2mgqzn","sub04","04","5","feedback","test","null","","","na","","35","",""
"1141.4000000953674","89532","HierDy0m2mgqzn","sub04","04","5","rl","test","74","img/b_d_check.png","7","75","color,pattern,shape","36","0",""
"null","90540","HierDy0m2mgqzn","sub04","04","5","feedback","test","null","","","na","","36","",""
"1010.2000002861023","91552","HierDy0m2mgqzn","sub04","04","5","rl","test","76","img/b_s_check.png","8","76","color,pattern,shape","37","1",""
"null","92571","HierDy0m2mgqzn","sub04","04","5","feedback","test","null","","","na","","37","",""
"1086.5999999046326","93659","HierDy0m2mgqzn","sub04","04","5","rl","test","70","img/o_d_check.png","3","68","color,pattern,shape","38","0",""
"null","94672","HierDy0m2mgqzn","sub04","04","5","feedback","test","null","","","na","","38","",""
"887.6999998092651","95561","HierDy0m2mgqzn","sub04","04","5","rl","test","74","img/b_d_stripes.png","5","72","color,pattern,shape","39","0",""
"null","96580","HierDy0m2mgqzn","sub04","04","5","feedback","test","null","","","na","","39","",""
"null","99087","HierDy0m2mgqzn","sub04","04","5","rl","test","null","img/b_s_stripes.png","6","74","color,pattern,shape","40","0",""
"null","100097","HierDy0m2mgqzn","sub04","04","5","feedback","test","null","","","na","","40","",""
"1343.9000000953674","101442","HierDy0m2mgqzn","sub04","04","5","rl","test","68","img/b_d_check.png","7","75","color,pattern,shape","41","0",""
"null","102450","HierDy0m2mgqzn","sub04","04","5","feedback","test","null","","","na","","41","",""
"819","103270","HierDy0m2mgqzn","sub04","04","5","rl","test","75","img/b_d_stripes.png","5","72","color,pattern,shape","42","0",""
"null","104287","HierDy0m2mgqzn","sub04","04","5","feedback","test","null","","","na","","42","",""
"401.2000002861023","104690","HierDy0m2mgqzn","sub04","04","5","rl","test","75","img/b_s_check.png","8","76","color,pattern,shape","43","0",""
"null","105706","HierDy0m2mgqzn","sub04","04","5","feedback","test","null","","","na","","43","",""
"599.0999999046326","106307","HierDy0m2mgqzn","sub04","04","5","rl","test","76","img/b_s_stripes.png","6","74","color,pattern,shape","44","0",""
"null","107322","HierDy0m2mgqzn","sub04","04","5","feedback","test","null","","","na","","44","",""
"549.1999998092651","107872","HierDy0m2mgqzn","sub04","04","5","rl","test","76","img/o_s_stripes.png","2","83","color,pattern,shape","45","0",""
"null","108883","HierDy0m2mgqzn","sub04","04","5","feedback","test","null","","","na","","45","",""
"541.5999999046326","109425","HierDy0m2mgqzn","sub04","04","5","rl","test","75","img/o_d_check.png","3","68","color,pattern,shape","46","0",""
"null","110438","HierDy0m2mgqzn","sub04","04","5","feedback","test","null","","","na","","46","",""
"782.1000003814697","111222","HierDy0m2mgqzn","sub04","04","5","rl","test","76","img/o_s_check.png","4","70","color,pattern,shape","47","0",""
"null","112238","HierDy0m2mgqzn","sub04","04","5","feedback","test","null","","","na","","47","",""
"335","112575","HierDy0m2mgqzn","sub04","04","5","rl","test","75","img/o_d_stripes.png","1","65","color,pattern,shape","48","0",""
"null","113590","HierDy0m2mgqzn","sub04","04","5","feedback","test","null","","","na","","48","",""
"1375.5","114967","HierDy0m2mgqzn","sub04","04","5","rl","test","68","img/o_d_stripes.png","1","65","color,pattern,shape","49","0",""
"null","115991","HierDy0m2mgqzn","sub04","04","5","feedback","test","null","","","na","","49","",""
"628.8000001907349","116621","HierDy0m2mgqzn","sub04","04","5","rl","test","70","img/b_s_check.png","8","76","color,pattern,shape","50","0",""
"null","117625","HierDy0m2mgqzn","sub04","04","5","feedback","test","null","","","na","","50","",""
"649.1999998092651","118276","HierDy0m2mgqzn","sub04","04","5","rl","test","68","img/o_d_check.png","3","68","color,pattern,shape","51","1",""
"null","119289","HierDy0m2mgqzn","sub04","04","5","feedback","test","null","","","na","","51","",""
"1044.2000002861023","120335","HierDy0m2mgqzn","sub04","04","5","rl","test","75","img/b_d_stripes.png","5","72","color,pattern,shape","52","0",""
"null","121347","HierDy0m2mgqzn","sub04","04","5","feedback","test","null","","","na","","52","",""
"867.5","122217","HierDy0m2mgqzn","sub04","04","5","rl","test","75","img/o_s_check.png","4","70","color,pattern,shape","53","0",""
"null","123241","HierDy0m2mgqzn","sub04","04","5","feedback","test","null","","","na","","53","",""
"666.4000000953674","123909","HierDy0m2mgqzn","sub04","04","5","rl","test","76","img/o_s_stripes.png","2","83","color,pattern,shape","54","0",""
"null","124924","HierDy0m2mgqzn","sub04","04","5","feedback","test","null","","","na","","54","",""
"869.5","125796","HierDy0m2mgqzn","sub04","04","5","rl","test","65","img/b_s_stripes.png","6","74","color,pattern,shape","55","0",""
"null","126806","HierDy0m2mgqzn","sub04","04","5","feedback","test","null","","","na","","55","",""
"1633.1999998092651","128441","HierDy0m2mgqzn","sub04","04","5","rl","test","75","img/b_d_check.png","7","75","color,pattern,shape","56","1",""
"null","129456","HierDy0m2mgqzn","sub04","04","5","feedback","test","null","","","na","","56","",""
"650.3000001907349","130108","HierDy0m2mgqzn","sub04","04","5","rl","test","75","img/b_s_stripes.png","6","74","color,pattern,shape","57","0",""
"null","131121","HierDy0m2mgqzn","sub04","04","5","feedback","test","null","","","na","","57","",""
"1077.6999998092651","132201","HierDy0m2mgqzn","sub04","04","5","rl","test","75","img/o_s_stripes.png","2","83","color,pattern,shape","58","0",""
"null","133214","HierDy0m2mgqzn","sub04","04","5","feedback","test","null","","","na","","58","",""
"500.80000019073486","133718","HierDy0m2mgqzn","sub04","04","5","rl","test","68","img/b_d_check.png","7","75","color,pattern,shape","59","0",""
"null","134731","HierDy0m2mgqzn","sub04","04","5","feedback","test","null","","","na","","59","",""
"389.90000009536743","135123","HierDy0m2mgqzn","sub04","04","5","rl","test","70","img/o_s_check.png","4","70","color,pattern,shape","60","1",""
"null","136141","HierDy0m2mgqzn","sub04","04","5","feedback","test","null","","","na","","60","",""
"828.9000000953674","136972","HierDy0m2mgqzn","sub04","04","5","rl","test","76","img/o_d_stripes.png","1","65","color,pattern,shape","61","0",""
"null","137981","HierDy0m2mgqzn","sub04","04","5","feedback","test","null","","","na","","61","",""
"1184.9000000953674","139168","HierDy0m2mgqzn","sub04","04","5","rl","test","76","img/b_s_check.png","8","76","color,pattern,shape","62","1",""
"null","140189","HierDy0m2mgqzn","sub04","04","5","feedback","test","null","","","na","","62","",""
"759.7999997138977","140951","HierDy0m2mgqzn","sub04","04","5","rl","test","75","img/b_d_stripes.png","5","72","color,pattern,shape","63","0",""
"null","141963","HierDy0m2mgqzn","sub04","04","5","feedback","test","null","","","na","","63","",""
"842.2999997138977","142807","HierDy0m2mgqzn","sub04","04","5","rl","test","83","img/o_d_check.png","3","68","color,pattern,shape","64","0",""
"null","143823","HierDy0m2mgqzn","sub04","04","5","feedback","test","null","","","na","","64","",""
"424.5","144250","HierDy0m2mgqzn","sub04","04","5","rl","test","75","img/o_d_check.png","3","68","color,pattern,shape","65","0",""
"null","145259","HierDy0m2mgqzn","sub04","04","5","feedback","test","null","","","na","","65","",""
"1754.7000002861023","147015","HierDy0m2mgqzn","sub04","04","5","rl","test","74","img/b_s_stripes.png","6","74","color,pattern,shape","66","1",""
"null","148027","HierDy0m2mgqzn","sub04","04","5","feedback","test","null","","","na","","66","",""
"1426.3000001907349","149455","HierDy0m2mgqzn","sub04","04","5","rl","test","75","img/b_d_check.png","7","75","color,pattern,shape","67","1",""
"null","150465","HierDy0m2mgqzn","sub04","04","5","feedback","test","null","","","na","","67","",""
"1066.4000000953674","151533","HierDy0m2mgqzn","sub04","04","5","rl","test","76","img/o_s_stripes.png","2","83","color,pattern,shape","68","0",""
"null","152538","HierDy0m2mgqzn","sub04","04","5","feedback","test","null","","","na","","68","",""
"2094.5","154634","HierDy0m2mgqzn","sub04","04","5","rl","test","74","img/b_d_stripes.png","5","72","color,pattern,shape","69","0",""
"null","155648","HierDy0m2mgqzn","sub04","04","5","feedback","test","null","","","na","","69","",""
"929.3000001907349","156579","HierDy0m2mgqzn","sub04","04","5","rl","test","76","img/o_d_check.png","3","68","color,pattern,shape","70","0",""
"null","157597","HierDy0m2mgqzn","sub04","04","5","feedback","test","null","","","na","","70","",""
"363.09999990463257","157962","HierDy0m2mgqzn","sub04","04","5","rl","test","76","img/o_s_check.png","4","70","color,pattern,shape","71","0",""
"null","158981","HierDy0m2mgqzn","sub04","04","5","feedback","test","null","","","na","","71","",""
"665.0999999046326","159647","HierDy0m2mgqzn","sub04","04","5","rl","test","75","img/b_s_check.png","8","76","color,pattern,shape","72","0",""
"null","160657","HierDy0m2mgqzn","sub04","04","5","feedback","test","null","","","na","","72","",""
"407.2000002861023","161066","HierDy0m2mgqzn","sub04","04","5","rl","test","65","img/o_d_stripes.png","1","65","color,pattern,shape","73","1",""
"null","162079","HierDy0m2mgqzn","sub04","04","5","feedback","test","null","","","na","","73","",""
"694.5","162775","HierDy0m2mgqzn","sub04","04","5","rl","test","75","img/b_s_check.png","8","76","color,pattern,shape","74","0",""
"null","163788","HierDy0m2mgqzn","sub04","04","5","feedback","test","null","","","na","","74","",""
"429.09999990463257","164218","HierDy0m2mgqzn","sub04","04","5","rl","test","83","img/o_s_stripes.png","2","83","color,pattern,shape","75","1",""
"null","165226","HierDy0m2mgqzn","sub04","04","5","feedback","test","null","","","na","","75","",""
"563.3000001907349","165791","HierDy0m2mgqzn","sub04","04","5","rl","test","83","img/o_d_stripes.png","1","65","color,pattern,shape","76","0",""
"null","166799","HierDy0m2mgqzn","sub04","04","5","feedback","test","null","","","na","","76","",""
"515.5","167316","HierDy0m2mgqzn","sub04","04","5","rl","test","65","img/b_d_stripes.png","5","72","color,pattern,shape","77","0",""
"null","168323","HierDy0m2mgqzn","sub04","04","5","feedback","test","null","","","na","","77","",""
"464.5","168790","HierDy0m2mgqzn","sub04","04","5","rl","test","75","img/b_s_stripes.png","6","74","color,pattern,shape","78","0",""
"null","169806","HierDy0m2mgqzn","sub04","04","5","feedback","test","null","","","na","","78","",""
"274","170082","HierDy0m2mgqzn","sub04","04","5","rl","test","68","img/b_s_check.png","8","76","color,pattern,shape","79","0",""
"null","171090","HierDy0m2mgqzn","sub04","04","5","feedback","test","null","","","na","","79","",""
"394.09999990463257","171486","HierDy0m2mgqzn","sub04","04","5","rl","test","70","img/o_s_check.png","4","70","color,pattern,shape","80","1",""
"null","172507","HierDy0m2mgqzn","sub04","04","5","feedback","test","null","","","na","","80","",""
"628.2999997138977","173137","HierDy0m2mgqzn","sub04","04","5","rl","test","76","img/b_d_check.png","7","75","color,pattern,shape","81","0",""
"null","174157","HierDy0m2mgqzn","sub04","04","5","feedback","test","null","","","na","","81","",""
"733.5","174892","HierDy0m2mgqzn","sub04","04","5","rl","test","68","img/o_d_stripes.png","1","65","color,pattern,shape","82","0",""
"null","175906","HierDy0m2mgqzn","sub04","04","5","feedback","test","null","","","na","","82","",""
"625.5","176533","HierDy0m2mgqzn","sub04","04","5","rl","test","65","img/o_d_check.png","3","68","color,pattern,shape","83","0",""
"null","177540","HierDy0m2mgqzn","sub04","04","5","feedback","test","null","","","na","","83","",""
"2109.4000000953674","179654","HierDy0m2mgqzn","sub04","04","5","rl","test","83","img/o_s_check.png","4","70","color,pattern,shape","84","0",""
"null","180668","HierDy0m2mgqzn","sub04","04","5","feedback","test","null","","","na","","84","",""
"null","183176","HierDy0m2mgqzn","sub04","04","5","rl","test","null","img/o_d_stripes.png","1","65","color,pattern,shape","85","0",""
"null","184193","HierDy0m2mgqzn","sub04","04","5","feedback","test","null","","","na","","85","",""
"null","186707","HierDy0m2mgqzn","sub04","04","5","rl","test","null","img/o_s_stripes.png","2","83","color,pattern,shape","86","0",""
"null","187715","HierDy0m2mgqzn","sub04","04","5","feedback","test","null","","","na","","86","",""
"null","190227","HierDy0m2mgqzn","sub04","04","5","rl","test","null","img/o_s_stripes.png","2","83","color,pattern,shape","87","0",""
"null","191242","HierDy0m2mgqzn","sub04","04","5","feedback","test","null","","","na","","87","",""
"1924.3000001907349","193168","HierDy0m2mgqzn","sub04","04","5","rl","test","74","img/b_d_check.png","7","75","color,pattern,shape","88","0",""
"null","194178","HierDy0m2mgqzn","sub04","04","5","feedback","test","null","","","na","","88","",""
"706.1999998092651","194886","HierDy0m2mgqzn","sub04","04","5","rl","test","75","img/b_d_check.png","7","75","color,pattern,shape","89","1",""
"null","195893","HierDy0m2mgqzn","sub04","04","5","feedback","test","null","","","na","","89","",""
"907.7000002861023","196803","HierDy0m2mgqzn","sub04","04","5","rl","test","75","img/b_d_stripes.png","5","72","color,pattern,shape","90","0",""
"null","197817","HierDy0m2mgqzn","sub04","04","5","feedback","test","null","","","na","","90","",""
"395.5","198215","HierDy0m2mgqzn","sub04","04","5","rl","test","76","img/b_d_check.png","7","75","color,pattern,shape","91","0",""
"null","199227","HierDy0m2mgqzn","sub04","04","5","feedback","test","null","","","na","","91","",""
"784.0999999046326","200012","HierDy0m2mgqzn","sub04","04","5","rl","test","75","img/b_s_stripes.png","6","74","color,pattern,shape","92","0",""
"null","201026","HierDy0m2mgqzn","sub04","04","5","feedback","test","null","","","na","","92","",""
"627.0999999046326","201655","HierDy0m2mgqzn","sub04","04","5","rl","test","83","img/b_s_check.png","8","76","color,pattern,shape","93","0",""
"null","202660","HierDy0m2mgqzn","sub04","04","5","feedback","test","null","","","na","","93","",""
"621.5","203284","HierDy0m2mgqzn","sub04","04","5","rl","test","68","img/b_d_stripes.png","5","72","color,pattern,shape","94","0",""
"null","204293","HierDy0m2mgqzn","sub04","04","5","feedback","test","null","","","na","","94","",""
"699.8999996185303","204995","HierDy0m2mgqzn","sub04","04","5","rl","test","74","img/b_s_stripes.png","6","74","color,pattern,shape","95","1",""
"null","206018","HierDy0m2mgqzn","sub04","04","5","feedback","test","null","","","na","","95","",""
"790.6999998092651","206810","HierDy0m2mgqzn","sub04","04","5","rl","test","70","img/b_d_stripes.png","5","72","color,pattern,shape","96","0",""
"null","207821","HierDy0m2mgqzn","sub04","04","5","feedback","test","null","","","na","","96","",""
"717.5999999046326","208540","HierDy0m2mgqzn","sub04","04","5","rl","test","74","img/o_s_check.png","4","70","color,pattern,shape","97","0",""
"null","209560","HierDy0m2mgqzn","sub04","04","5","feedback","test","null","","","na","","97","",""
"746.8000001907349","210308","HierDy0m2mgqzn","sub04","04","5","rl","test","74","img/o_d_check.png","3","68","color,pattern,shape","98","0",""
"null","211318","HierDy0m2mgqzn","sub04","04","5","feedback","test","null","","","na","","98","",""
"519.3999996185303","211839","HierDy0m2mgqzn","sub04","04","5","rl","test","74","img/b_s_check.png","8","76","color,pattern,shape","99","0",""
"null","212852","HierDy0m2mgqzn","sub04","04","5","feedback","test","null","","","na","","99","",""
"842.2999997138977","213696","HierDy0m2mgqzn","sub04","04","5","rl","test","74","img/o_d_stripes.png","1","65","color,pattern,shape","100","0",""
"null","214709","HierDy0m2mgqzn","sub04","04","5","feedback","test","null","","","na","","100","",""
"242.80000019073486","214953","HierDy0m2mgqzn","sub04","04","5","rl","test","75","img/b_s_stripes.png","6","74","color,pattern,shape","101","0",""
"null","215977","HierDy0m2mgqzn","sub04","04","5","feedback","test","null","","","na","","101","",""
"823.5","216802","HierDy0m2mgqzn","sub04","04","5","rl","test","68","img/o_s_stripes.png","2","83","color,pattern,shape","102","0",""
"null","217822","HierDy0m2mgqzn","sub04","04","5","feedback","test","null","","","na","","102","",""
"643.7999997138977","218467","HierDy0m2mgqzn","sub04","04","5","rl","test","70","img/o_d_check.png","3","68","color,pattern,shape","103","0",""
"null","219476","HierDy0m2mgqzn","sub04","04","5","feedback","test","null","","","na","","103","",""
"534.1999998092651","220013","HierDy0m2mgqzn","sub04","04","5","rl","test","83","img/o_s_check.png","4","70","color,pattern,shape","104","0",""
"null","221026","HierDy0m2mgqzn","sub04","04","5","feedback","test","null","","","na","","104","",""
"559.3000001907349","221587","HierDy0m2mgqzn","sub04","04","5","rl","test","76","img/b_d_stripes.png","5","72","color,pattern,shape","105","0",""
"null","222601","HierDy0m2mgqzn","sub04","04","5","feedback","test","null","","","na","","105","",""
"434.7000002861023","223037","HierDy0m2mgqzn","sub04","04","5","rl","test","75","img/b_d_check.png","7","75","color,pattern,shape","106","1",""
"null","224059","HierDy0m2mgqzn","sub04","04","5","feedback","test","null","","","na","","106","",""
"538.2999997138977","224599","HierDy0m2mgqzn","sub04","04","5","rl","test","75","img/b_s_check.png","8","76","color,pattern,shape","107","0",""
"null","225610","HierDy0m2mgqzn","sub04","04","5","feedback","test","null","","","na","","107","",""
"983.6000003814697","226595","HierDy0m2mgqzn","sub04","04","5","rl","test","70","img/o_s_check.png","4","70","color,pattern,shape","108","1",""
"null","227609","HierDy0m2mgqzn","sub04","04","5","feedback","test","null","","","na","","108","",""
"null","230118","HierDy0m2mgqzn","sub04","04","5","rl","test","null","img/b_s_stripes.png","6","74","color,pattern,shape","109","0",""
"null","231135","HierDy0m2mgqzn","sub04","04","5","feedback","test","null","","","na","","109","",""
"null","233651","HierDy0m2mgqzn","sub04","04","5","rl","test","null","img/o_d_stripes.png","1","65","color,pattern,shape","110","0",""
"null","234663","HierDy0m2mgqzn","sub04","04","5","feedback","test","null","","","na","","110","",""
"1206.5","235872","HierDy0m2mgqzn","sub04","04","5","rl","test","75","img/o_s_stripes.png","2","83","color,pattern,shape","111","0",""
"null","236878","HierDy0m2mgqzn","sub04","04","5","feedback","test","null","","","na","","111","",""
"506.19999980926514","237386","HierDy0m2mgqzn","sub04","04","5","rl","test","76","img/o_d_stripes.png","1","65","color,pattern,shape","112","0",""
"null","238396","HierDy0m2mgqzn","sub04","04","5","feedback","test","null","","","na","","112","",""
"539.9000000953674","238937","HierDy0m2mgqzn","sub04","04","5","rl","test","75","img/o_d_check.png","3","68","color,pattern,shape","113","0",""
"null","239953","HierDy0m2mgqzn","sub04","04","5","feedback","test","null","","","na","","113","",""
"376","240330","HierDy0m2mgqzn","sub04","04","5","rl","test","74","img/o_s_stripes.png","2","83","color,pattern,shape","114","0",""
"null","241344","HierDy0m2mgqzn","sub04","04","5","feedback","test","null","","","na","","114","",""
"792.5999999046326","242139","HierDy0m2mgqzn","sub04","04","5","rl","test","75","img/b_s_check.png","8","76","color,pattern,shape","115","0",""
"null","243163","HierDy0m2mgqzn","sub04","04","5","feedback","test","null","","","na","","115","",""
"762.5","243927","HierDy0m2mgqzn","sub04","04","5","rl","test","74","img/b_d_stripes.png","5","72","color,pattern,shape","116","0",""
"null","244945","HierDy0m2mgqzn","sub04","04","5","feedback","test","null","","","na","","116","",""
"661.2999997138977","245608","HierDy0m2mgqzn","sub04","04","5","rl","test","75","img/o_s_check.png","4","70","color,pattern,shape","117","0",""
"null","246619","HierDy0m2mgqzn","sub04","04","5","feedback","test","null","","","na","","117","",""
"643.6999998092651","247264","HierDy0m2mgqzn","sub04","04","5","rl","test","75","img/b_d_check.png","7","75","color,pattern,shape","118","1",""
"null","248270","HierDy0m2mgqzn","sub04","04","5","feedback","test","null","","","na","","118","",""
"500.59999990463257","248772","HierDy0m2mgqzn","sub04","04","5","rl","test","75","img/b_d_check.png","7","75","color,pattern,shape","119","1",""
"null","249796","HierDy0m2mgqzn","sub04","04","5","feedback","test","null","","","na","","119","",""
"1401.2000002861023","251199","HierDy0m2mgqzn","sub04","04","5","rl","test","76","img/b_s_check.png","8","76","color,pattern,shape","120","1",""
"null","252212","HierDy0m2mgqzn","sub04","04","5","feedback","test","null","","","na","","120","",""
"null","254727","HierDy0m2mgqzn","sub04","04","5","rl","test","null","img/b_s_stripes.png","6","74","color,pattern,shape","121","0",""
"null","255736","HierDy0m2mgqzn","sub04","04","5","feedback","test","null","","","na","","121","",""
"1388.7999997138977","257127","HierDy0m2mgqzn","sub04","04","5","rl","test","74","img/o_d_check.png","3","68","color,pattern,shape","122","0",""
"null","258145","HierDy0m2mgqzn","sub04","04","5","feedback","test","null","","","na","","122","",""
"538.0999999046326","258684","HierDy0m2mgqzn","sub04","04","5","rl","test","83","img/o_d_stripes.png","1","65","color,pattern,shape","123","0",""
"null","259694","HierDy0m2mgqzn","sub04","04","5","feedback","test","null","","","na","","123","",""
"702.8000001907349","260398","HierDy0m2mgqzn","sub04","04","5","rl","test","68","img/o_d_check.png","3","68","color,pattern,shape","124","1",""
"null","261410","HierDy0m2mgqzn","sub04","04","5","feedback","test","null","","","na","","124","",""
"550.3000001907349","261962","HierDy0m2mgqzn","sub04","04","5","rl","test","68","img/b_s_stripes.png","6","74","color,pattern,shape","125","0",""
"null","262976","HierDy0m2mgqzn","sub04","04","5","feedback","test","null","","","na","","125","",""
"519.1999998092651","263497","HierDy0m2mgqzn","sub04","04","5","rl","test","74","img/b_d_stripes.png","5","72","color,pattern,shape","126","0",""
"null","264511","HierDy0m2mgqzn","sub04","04","5","feedback","test","null","","","na","","126","",""
"801.9000000953674","265314","HierDy0m2mgqzn","sub04","04","5","rl","test","74","img/o_s_stripes.png","2","83","color,pattern,shape","127","0",""
"null","266330","HierDy0m2mgqzn","sub04","04","5","feedback","test","null","","","na","","127","",""
"1316.7999997138977","267649","HierDy0m2mgqzn","sub04","04","5","rl","test","74","img/o_d_stripes.png","1","65","color,pattern,shape","128","0",""
"null","268662","HierDy0m2mgqzn","sub04","04","5","feedback","test","null","","","na","","128","",""
"142.5","268806","HierDy0m2mgqzn","sub04","04","5","rl","test","75","img/o_s_check.png","4","70","color,pattern,shape","129","0",""
"null","269812","HierDy0m2mgqzn","sub04","04","5","feedback","test","null","","","na","","129","",""
"407.19999980926514","270222","HierDy0m2mgqzn","sub04","04","5","rl","test","75","img/o_s_check.png","4","70","color,pattern,shape","130","0",""
"null","271237","HierDy0m2mgqzn","sub04","04","5","feedback","test","null","","","na","","130","",""
"559.3000001907349","271798","HierDy0m2mgqzn","sub04","04","5","rl","test","75","img/o_d_check.png","3","68","color,pattern,shape","131","0",""
"null","272814","HierDy0m2mgqzn","sub04","04","5","feedback","test","null","","","na","","131","",""
"648.5","273465","HierDy0m2mgqzn","sub04","04","5","rl","test","76","img/b_d_stripes.png","5","72","color,pattern,shape","132","0",""
"null","274478","HierDy0m2mgqzn","sub04","04","5","feedback","test","null","","","na","","132","",""
"845.1999998092651","275325","HierDy0m2mgqzn","sub04","04","5","rl","test","76","img/b_d_check.png","7","75","color,pattern,shape","133","0",""
"null","276344","HierDy0m2mgqzn","sub04","04","5","feedback","test","null","","","na","","133","",""
"678.3000001907349","277024","HierDy0m2mgqzn","sub04","04","5","rl","test","75","img/b_s_check.png","8","76","color,pattern,shape","134","0",""
"null","278028","HierDy0m2mgqzn","sub04","04","5","feedback","test","null","","","na","","134","",""
"300.09999990463257","278330","HierDy0m2mgqzn","sub04","04","5","rl","test","75","img/b_s_stripes.png","6","74","color,pattern,shape","135","0",""
"null","279345","HierDy0m2mgqzn","sub04","04","5","feedback","test","null","","","na","","135","",""
"1512.5999999046326","280860","HierDy0m2mgqzn","sub04","04","5","rl","test","76","img/b_d_check.png","7","75","color,pattern,shape","136","0",""
"null","281879","HierDy0m2mgqzn","sub04","04","5","feedback","test","null","","","na","","136","",""
"1261.8000001907349","283142","HierDy0m2mgqzn","sub04","04","5","rl","test","76","img/o_s_check.png","4","70","color,pattern,shape","137","0",""
"null","284153","HierDy0m2mgqzn","sub04","04","5","feedback","test","null","","","na","","137","",""
"43.09999990463257","284198","HierDy0m2mgqzn","sub04","04","5","rl","test","76","img/o_s_stripes.png","2","83","color,pattern,shape","138","0",""
"null","285212","HierDy0m2mgqzn","sub04","04","5","feedback","test","null","","","na","","138","",""
"1267","286480","HierDy0m2mgqzn","sub04","04","5","rl","test","76","img/o_s_stripes.png","2","83","color,pattern,shape","139","0",""
"null","287487","HierDy0m2mgqzn","sub04","04","5","feedback","test","null","","","na","","139","",""
"1199.8999996185303","288689","HierDy0m2mgqzn","sub04","04","5","rl","test","76","img/b_s_check.png","8","76","color,pattern,shape","140","1",""
"null","289695","HierDy0m2mgqzn","sub04","04","5","feedback","test","null","","","na","","140","",""
"74.2000002861023","289771","HierDy0m2mgqzn","sub04","04","5","rl","test","76","img/o_d_stripes.png","1","65","color,pattern,shape","141","0",""
"null","290793","HierDy0m2mgqzn","sub04","04","5","feedback","test","null","","","na","","141","",""
"1737.6000003814697","292532","HierDy0m2mgqzn","sub04","04","5","rl","test","76","img/b_d_stripes.png","5","72","color,pattern,shape","142","0",""
"null","293546","HierDy0m2mgqzn","sub04","04","5","feedback","test","null","","","na","","142","",""
"765.2000002861023","294313","HierDy0m2mgqzn","sub04","04","5","rl","test","75","img/o_s_stripes.png","2","83","color,pattern,shape","143","0",""
"null","295329","HierDy0m2mgqzn","sub04","04","5","feedback","test","null","","","na","","143","",""
"643.8000001907349","295975","HierDy0m2mgqzn","sub04","04","5","rl","test","83","img/b_d_check.png","7","75","color,pattern,shape","144","0",""
"null","296995","HierDy0m2mgqzn","sub04","04","5","feedback","test","null","","","na","","144","",""
"333.40000009536743","297330","HierDy0m2mgqzn","sub04","04","5","rl","test","68","img/o_d_check.png","3","68","color,pattern,shape","145","1",""
"null","298345","HierDy0m2mgqzn","sub04","04","5","feedback","test","null","","","na","","145","",""
"1244.8000001907349","299592","HierDy0m2mgqzn","sub04","04","5","rl","test","68","img/b_s_stripes.png","6","74","color,pattern,shape","146","0",""
"null","300597","HierDy0m2mgqzn","sub04","04","5","feedback","test","null","","","na","","146","",""
"null","303113","HierDy0m2mgqzn","sub04","04","5","rl","test","null","img/o_d_check.png","3","68","color,pattern,shape","147","0",""
"null","304129","HierDy0m2mgqzn","sub04","04","5","feedback","test","null","","","na","","147","",""
"1668","305799","HierDy0m2mgqzn","sub04","04","5","rl","test","75","img/b_s_check.png","8","76","color,pattern,shape","148","0",""
"null","306812","HierDy0m2mgqzn","sub04","04","5","feedback","test","null","","","na","","148","",""
"108.90000009536743","306922","HierDy0m2mgqzn","sub04","04","5","rl","test","76","img/b_s_stripes.png","6","74","color,pattern,shape","149","0",""
"null","307945","HierDy0m2mgqzn","sub04","04","5","feedback","test","null","","","na","","149","",""
"366","308313","HierDy0m2mgqzn","sub04","04","5","rl","test","76","img/o_s_check.png","4","70","color,pattern,shape","150","0",""
"null","309327","HierDy0m2mgqzn","sub04","04","5","feedback","test","null","","","na","","150","",""
"445.59999990463257","309774","HierDy0m2mgqzn","sub04","04","5","rl","test","75","img/b_d_stripes.png","5","72","color,pattern,shape","151","0",""
"null","310794","HierDy0m2mgqzn","sub04","04","5","feedback","test","null","","","na","","151","",""
"418.19999980926514","311214","HierDy0m2mgqzn","sub04","04","5","rl","test","76","img/o_d_check.png","3","68","color,pattern,shape","152","0",""
"null","312230","HierDy0m2mgqzn","sub04","04","5","feedback","test","null","","","na","","152","",""
"2101","314332","HierDy0m2mgqzn","sub04","04","5","rl","test","75","img/b_s_check.png","8","76","color,pattern,shape","153","0",""
"null","315346","HierDy0m2mgqzn","sub04","04","5","feedback","test","null","","","na","","153","",""
"735.4000000953674","316083","HierDy0m2mgqzn","sub04","04","5","rl","test","68","img/o_s_check.png","4","70","color,pattern,shape","154","0",""
"null","317103","HierDy0m2mgqzn","sub04","04","5","feedback","test","null","","","na","","154","",""
"363.2000002861023","317468","HierDy0m2mgqzn","sub04","04","5","rl","test","70","img/o_d_stripes.png","1","65","color,pattern,shape","155","0",""
"null","318476","HierDy0m2mgqzn","sub04","04","5","feedback","test","null","","","na","","155","",""
"1263.3000001907349","319741","HierDy0m2mgqzn","sub04","04","5","rl","test","83","img/b_d_check.png","7","75","color,pattern,shape","156","0",""
"null","320761","HierDy0m2mgqzn","sub04","04","5","feedback","test","null","","","na","","156","",""
"null","323270","HierDy0m2mgqzn","sub04","04","5","rl","test","null","img/b_d_stripes.png","5","72","color,pattern,shape","157","0",""
"null","324278","HierDy0m2mgqzn","sub04","04","5","feedback","test","null","","","na","","157","",""
"null","326795","HierDy0m2mgqzn","sub04","04","5","rl","test","null","img/o_s_stripes.png","2","83","color,pattern,shape","158","0",""
"null","327811","HierDy0m2mgqzn","sub04","04","5","feedback","test","null","","","na","","158","",""
"263.69999980926514","328077","HierDy0m2mgqzn","sub04","04","5","rl","test","83","img/o_d_check.png","3","68","color,pattern,shape","159","0",""
"null","329086","HierDy0m2mgqzn","sub04","04","5","feedback","test","null","","","na","","159","",""
"null","331610","HierDy0m2mgqzn","sub04","04","5","rl","test","null","img/o_d_stripes.png","1","65","color,pattern,shape","160","0",""
"null","332629","HierDy0m2mgqzn","sub04","04","5","feedback","test","null","","","na","","160","",""
"null","335148","HierDy0m2mgqzn","sub04","04","5","rl","test","null","img/b_s_stripes.png","6","74","color,pattern,shape","161","0",""
"null","336162","HierDy0m2mgqzn","sub04","04","5","feedback","test","null","","","na","","161","",""
"2.1999998092651367","336166","HierDy0m2mgqzn","sub04","04","5","rl","test","74","img/b_s_stripes.png","6","74","color,pattern,shape","162","1",""
"null","337178","HierDy0m2mgqzn","sub04","04","5","feedback","test","null","","","na","","162","",""
"2230.199999809265","339410","HierDy0m2mgqzn","sub04","04","5","rl","test","83","img/o_d_stripes.png","1","65","color,pattern,shape","163","0",""
"null","340420","HierDy0m2mgqzn","sub04","04","5","feedback","test","null","","","na","","163","",""
"null","342929","HierDy0m2mgqzn","sub04","04","5","rl","test","null","img/b_d_check.png","7","75","color,pattern,shape","164","0",""
"null","343945","HierDy0m2mgqzn","sub04","04","5","feedback","test","null","","","na","","164","",""
"null","346453","HierDy0m2mgqzn","sub04","04","5","rl","test","null","img/o_d_stripes.png","1","65","color,pattern,shape","165","0",""
"null","347462","HierDy0m2mgqzn","sub04","04","5","feedback","test","null","","","na","","165","",""
"954.1000003814697","348417","HierDy0m2mgqzn","sub04","04","5","rl","test","65","img/b_d_stripes.png","5","72","color,pattern,shape","166","0",""
"null","349437","HierDy0m2mgqzn","sub04","04","5","feedback","test","null","","","na","","166","",""
"702.0999999046326","350141","HierDy0m2mgqzn","sub04","04","5","rl","test","76","img/o_s_check.png","4","70","color,pattern,shape","167","0",""
"null","351148","HierDy0m2mgqzn","sub04","04","5","feedback","test","null","","","na","","167","",""
"347.90000009536743","351498","HierDy0m2mgqzn","sub04","04","5","rl","test","83","img/b_s_check.png","8","76","color,pattern,shape","168","0",""
"null","352511","HierDy0m2mgqzn","sub04","04","5","feedback","test","null","","","na","","168","",""
"315.2000002861023","352828","HierDy0m2mgqzn","sub04","04","5","rl","test","74","img/o_s_stripes.png","2","83","color,pattern,shape","169","0",""
"null","353845","HierDy0m2mgqzn","sub04","04","5","feedback","test","null","","","na","","169","",""
"331.19999980926514","354178","HierDy0m2mgqzn","sub04","04","5","rl","test","75","img/b_d_check.png","7","75","color,pattern,shape","170","1",""
"null","355194","HierDy0m2mgqzn","sub04","04","5","feedback","test","null","","","na","","170","",""
"418.2999997138977","355614","HierDy0m2mgqzn","sub04","04","5","rl","test","75","img/o_s_check.png","4","70","color,pattern,shape","171","0",""
"null","356629","HierDy0m2mgqzn","sub04","04","5","feedback","test","null","","","na","","171","",""
"91.90000009536743","356723","HierDy0m2mgqzn","sub04","04","5","rl","test","83","img/o_s_stripes.png","2","83","color,pattern,shape","172","1",""
"null","357726","HierDy0m2mgqzn","sub04","04","5","feedback","test","null","","","na","","172","",""
"245.30000019073486","357973","HierDy0m2mgqzn","sub04","04","5","rl","test","68","img/b_d_stripes.png","5","72","color,pattern,shape","173","0",""
"null","358992","HierDy0m2mgqzn","sub04","04","5","feedback","test","null","","","na","","173","",""
"88.30000019073486","359082","HierDy0m2mgqzn","sub04","04","5","rl","test","76","img/o_d_check.png","3","68","color,pattern,shape","174","0",""
"null","360096","HierDy0m2mgqzn","sub04","04","5","feedback","test","null","","","na","","174","",""
"1201","361295","HierDy0m2mgqzn","sub04","04","5","rl","test","76","img/o_d_check.png","3","68","color,pattern,shape","175","0",""
"null","362315","HierDy0m2mgqzn","sub04","04","5","feedback","test","null","","","na","","175","",""
"344.40000009536743","362662","HierDy0m2mgqzn","sub04","04","5","rl","test","65","img/b_s_stripes.png","6","74","color,pattern,shape","176","0",""
"null","363674","HierDy0m2mgqzn","sub04","04","5","feedback","test","null","","","na","","176","",""
"351.6000003814697","364028","HierDy0m2mgqzn","sub04","04","5","rl","test","75","img/b_s_check.png","8","76","color,pattern,shape","177","0",""
"null","365034","HierDy0m2mgqzn","sub04","04","5","feedback","test","null","","","na","","177","",""
"277.59999990463257","365313","HierDy0m2mgqzn","sub04","04","5","rl","test","76","img/b_s_stripes.png","6","74","color,pattern,shape","178","0",""
"null","366327","HierDy0m2mgqzn","sub04","04","5","feedback","test","null","","","na","","178","",""
"201.30000019073486","366531","HierDy0m2mgqzn","sub04","04","5","rl","test","76","img/b_s_check.png","8","76","color,pattern,shape","179","1",""
"null","367542","HierDy0m2mgqzn","sub04","04","5","feedback","test","null","","","na","","179","",""
"227.19999980926514","367771","HierDy0m2mgqzn","sub04","04","5","rl","test","76","img/o_d_stripes.png","1","65","color,pattern,shape","180","0",""
"null","368784","HierDy0m2mgqzn","sub04","04","5","feedback","test","null","","","na","","180","",""
"226.19999980926514","369011","HierDy0m2mgqzn","sub04","04","5","rl","test","76","img/b_d_stripes.png","5","72","color,pattern,shape","181","0",""
"null","370017","HierDy0m2mgqzn","sub04","04","5","feedback","test","null","","","na","","181","",""
"242.2000002861023","370261","HierDy0m2mgqzn","sub04","04","5","rl","test","76","img/o_s_stripes.png","2","83","color,pattern,shape","182","0",""
"null","371268","HierDy0m2mgqzn","sub04","04","5","feedback","test","null","","","na","","182","",""
"258.09999990463257","371528","HierDy0m2mgqzn","sub04","04","5","rl","test","76","img/b_d_check.png","7","75","color,pattern,shape","183","0",""
"null","372543","HierDy0m2mgqzn","sub04","04","5","feedback","test","null","","","na","","183","",""
"241.7999997138977","372787","HierDy0m2mgqzn","sub04","04","5","rl","test","76","img/b_s_stripes.png","6","74","color,pattern,shape","184","0",""
"null","373792","HierDy0m2mgqzn","sub04","04","5","feedback","test","null","","","na","","184","",""
"136.40000009536743","373930","HierDy0m2mgqzn","sub04","04","5","rl","test","76","img/o_s_check.png","4","70","color,pattern,shape","185","0",""
"null","374942","HierDy0m2mgqzn","sub04","04","5","feedback","test","null","","","na","","185","",""
"1298.0999999046326","376243","HierDy0m2mgqzn","sub04","04","5","rl","test","65","img/b_d_stripes.png","5","72","color,pattern,shape","186","0",""
"null","377259","HierDy0m2mgqzn","sub04","04","5","feedback","test","null","","","na","","186","",""
"218.5","377479","HierDy0m2mgqzn","sub04","04","5","rl","test","83","img/o_d_check.png","3","68","color,pattern,shape","187","0",""
"null","378492","HierDy0m2mgqzn","sub04","04","5","feedback","test","null","","","na","","187","",""
"308.90000009536743","378803","HierDy0m2mgqzn","sub04","04","5","rl","test","75","img/o_s_check.png","4","70","color,pattern,shape","188","0",""
"null","379808","HierDy0m2mgqzn","sub04","04","5","feedback","test","null","","","na","","188","",""
"101.09999990463257","379912","HierDy0m2mgqzn","sub04","04","5","rl","test","68","img/b_s_check.png","8","76","color,pattern,shape","189","0",""
"null","380925","HierDy0m2mgqzn","sub04","04","5","feedback","test","null","","","na","","189","",""
"211","381138","HierDy0m2mgqzn","sub04","04","5","rl","test","74","img/o_d_stripes.png","1","65","color,pattern,shape","190","0",""
"null","382148","HierDy0m2mgqzn","sub04","04","5","feedback","test","null","","","na","","190","",""
"992.8000001907349","383143","HierDy0m2mgqzn","sub04","04","5","rl","test","68","img/o_d_check.png","3","68","color,pattern,shape","191","1",""
"null","384167","HierDy0m2mgqzn","sub04","04","5","feedback","test","null","","","na","","191","",""
"887.5999999046326","385057","HierDy0m2mgqzn","sub04","04","5","rl","test","75","img/b_d_check.png","7","75","color,pattern,shape","192","1",""
"null","386075","HierDy0m2mgqzn","sub04","04","5","feedback","test","null","","","na","","192","",""
"944.9000000953674","387022","HierDy0m2mgqzn","sub04","04","5","rl","test","74","img/o_s_stripes.png","2","83","color,pattern,shape","193","0",""
"null","388042","HierDy0m2mgqzn","sub04","04","5","feedback","test","null","","","na","","193","",""
"671.8999996185303","388716","HierDy0m2mgqzn","sub04","04","5","rl","test","83","img/o_s_stripes.png","2","83","color,pattern,shape","194","1",""
"null","389726","HierDy0m2mgqzn","sub04","04","5","feedback","test","null","","","na","","194","",""
"845.6999998092651","390573","HierDy0m2mgqzn","sub04","04","5","rl","test","70","img/o_s_check.png","4","70","color,pattern,shape","195","1",""
"null","391576","HierDy0m2mgqzn","sub04","04","5","feedback","test","null","","","na","","195","",""
"null","394085","HierDy0m2mgqzn","sub04","04","5","rl","test","null","img/b_s_stripes.png","6","74","color,pattern,shape","196","0",""
"null","395109","HierDy0m2mgqzn","sub04","04","5","feedback","test","null","","","na","","196","",""
"1243","396354","HierDy0m2mgqzn","sub04","04","5","rl","test","75","img/b_d_check.png","7","75","color,pattern,shape","197","1",""
"null","397376","HierDy0m2mgqzn","sub04","04","5","feedback","test","null","","","na","","197","",""
"353.40000009536743","397731","HierDy0m2mgqzn","sub04","04","5","rl","test","75","img/o_d_stripes.png","1","65","color,pattern,shape","198","0",""
"null","398742","HierDy0m2mgqzn","sub04","04","5","feedback","test","null","","","na","","198","",""
"760.4000000953674","399504","HierDy0m2mgqzn","sub04","04","5","rl","test","75","img/b_d_stripes.png","5","72","color,pattern,shape","199","0",""
"null","400525","HierDy0m2mgqzn","sub04","04","5","feedback","test","null","","","na","","199","",""
"2444.0999999046326","402970","HierDy0m2mgqzn","sub04","04","5","rl","test","75","img/b_s_check.png","8","76","color,pattern,shape","200","0",""
"null","403976","HierDy0m2mgqzn","sub04","04","5","feedback","test","null","","","na","","200","",""
"1110.1999998092651","405087","HierDy0m2mgqzn","sub04","04","5","rl","test","76","img/b_s_check.png","8","76","color,pattern,shape","201","1",""
"null","406111","HierDy0m2mgqzn","sub04","04","5","feedback","test","null","","","na","","201","",""
"916.7000002861023","407029","HierDy0m2mgqzn","sub04","04","5","rl","test","75","img/o_d_stripes.png","1","65","color,pattern,shape","202","0",""
"null","408043","HierDy0m2mgqzn","sub04","04","5","feedback","test","null","","","na","","202","",""
"495.2999997138977","408540","HierDy0m2mgqzn","sub04","04","5","rl","test","83","img/b_d_check.png","7","75","color,pattern,shape","203","0",""
"null","409547","HierDy0m2mgqzn","sub04","04","5","feedback","test","null","","","na","","203","",""
"159","409708","HierDy0m2mgqzn","sub04","04","5","rl","test","75","img/o_d_check.png","3","68","color,pattern,shape","204","0",""
"null","410728","HierDy0m2mgqzn","sub04","04","5","feedback","test","null","","","na","","204","",""
"2.0999999046325684","410732","HierDy0m2mgqzn","sub04","04","5","rl","test","68","img/b_d_stripes.png","5","72","color,pattern,shape","205","0",""
"null","411743","HierDy0m2mgqzn","sub04","04","5","feedback","test","null","","","na","","205","",""
"null","414262","HierDy0m2mgqzn","sub04","04","5","rl","test","null","img/b_d_check.png","7","75","color,pattern,shape","206","0",""
"null","415276","HierDy0m2mgqzn","sub04","04","5","feedback","test","null","","","na","","206","",""
"734.2999997138977","416012","HierDy0m2mgqzn","sub04","04","5","rl","test","76","img/b_d_stripes.png","5","72","color,pattern,shape","207","0",""
"null","417026","HierDy0m2mgqzn","sub04","04","5","feedback","test","null","","","na","","207","",""
"1821.8000001907349","418850","HierDy0m2mgqzn","sub04","04","5","rl","test","74","img/o_s_stripes.png","2","83","color,pattern,shape","208","0",""
"null","419861","HierDy0m2mgqzn","sub04","04","5","feedback","test","null","","","na","","208","",""
"216.5","420079","HierDy0m2mgqzn","sub04","04","5","rl","test","65","img/b_s_check.png","8","76","color,pattern,shape","209","0",""
"null","421093","HierDy0m2mgqzn","sub04","04","5","feedback","test","null","","","na","","209","",""
"229.90000009536743","421321","HierDy0m2mgqzn","sub04","04","5","rl","test","76","img/o_s_check.png","4","70","color,pattern,shape","210","0",""
"null","422332","HierDy0m2mgqzn","sub04","04","5","feedback","test","null","","","na","","210","",""
"207.7000002861023","422542","HierDy0m2mgqzn","sub04","04","5","rl","test","75","img/b_s_stripes.png","6","74","color,pattern,shape","211","0",""
"null","423557","HierDy0m2mgqzn","sub04","04","5","feedback","test","null","","","na","","211","",""
"325.90000009536743","423885","HierDy0m2mgqzn","sub04","04","5","rl","test","68","img/b_s_stripes.png","6","74","color,pattern,shape","212","0",""
"null","424906","HierDy0m2mgqzn","sub04","04","5","feedback","test","null","","","na","","212","",""
"null","427423","HierDy0m2mgqzn","sub04","04","5","rl","test","null","img/o_s_check.png","4","70","color,pattern,shape","213","0",""
"null","428431","HierDy0m2mgqzn","sub04","04","5","feedback","test","null","","","na","","213","",""
"null","430941","HierDy0m2mgqzn","sub04","04","5","rl","test","null","img/o_d_check.png","3","68","color,pattern,shape","214","0",""
"null","431957","HierDy0m2mgqzn","sub04","04","5","feedback","test","null","","","na","","214","",""
"775.8000001907349","432735","HierDy0m2mgqzn","sub04","04","5","rl","test","72","img/o_s_stripes.png","2","83","color,pattern,shape","215","0",""
"null","433756","HierDy0m2mgqzn","sub04","04","5","feedback","test","null","","","na","","215","",""
"618.1999998092651","434376","HierDy0m2mgqzn","sub04","04","5","rl","test","83","img/o_d_stripes.png","1","65","color,pattern,shape","216","0",""
"null","435390","HierDy0m2mgqzn","sub04","04","5","feedback","test","null","","","na","","216","",""
"817.7999997138977","436209","HierDy0m2mgqzn","sub04","04","5","rl","test","75","img/b_s_stripes.png","6","74","color,pattern,shape","217","0",""
"null","437223","HierDy0m2mgqzn","sub04","04","5","feedback","test","null","","","na","","217","",""
"1249.6999998092651","438474","HierDy0m2mgqzn","sub04","04","5","rl","test","76","img/b_s_check.png","8","76","color,pattern,shape","218","1",""
"null","439490","HierDy0m2mgqzn","sub04","04","5","feedback","test","null","","","na","","218","",""
"617.1000003814697","440109","HierDy0m2mgqzn","sub04","04","5","rl","test","75","img/b_d_stripes.png","5","72","color,pattern,shape","219","0",""
"null","441124","HierDy0m2mgqzn","sub04","04","5","feedback","test","null","","","na","","219","",""
"1290.5","442416","HierDy0m2mgqzn","sub04","04","5","rl","test","75","img/o_s_check.png","4","70","color,pattern,shape","220","0",""
"null","443426","HierDy0m2mgqzn","sub04","04","5","feedback","test","null","","","na","","220","",""
"1609.4000000953674","445038","HierDy0m2mgqzn","sub04","04","5","rl","test","76","img/b_d_check.png","7","75","color,pattern,shape","221","0",""
"null","446056","HierDy0m2mgqzn","sub04","04","5","feedback","test","null","","","na","","221","",""
"217.69999980926514","446276","HierDy0m2mgqzn","sub04","04","5","rl","test","75","img/b_s_check.png","8","76","color,pattern,shape","222","0",""
"null","447289","HierDy0m2mgqzn","sub04","04","5","feedback","test","null","","","na","","222","",""
"585.1999998092651","447876","HierDy0m2mgqzn","sub04","04","5","rl","test","75","img/b_d_check.png","7","75","color,pattern,shape","223","1",""
"null","448891","HierDy0m2mgqzn","sub04","04","5","feedback","test","null","","","na","","223","",""
"694.1999998092651","449587","HierDy0m2mgqzn","sub04","04","5","rl","test","75","img/o_s_stripes.png","2","83","color,pattern,shape","224","0",""
"null","450606","HierDy0m2mgqzn","sub04","04","5","feedback","test","null","","","na","","224","",""
"0.5","450608","HierDy0m2mgqzn","sub04","04","5","rl","test","76","img/o_d_check.png","3","68","color,pattern,shape","225","0",""
"null","451623","HierDy0m2mgqzn","sub04","04","5","feedback","test","null","","","na","","225","",""
"1818.6999998092651","453444","HierDy0m2mgqzn","sub04","04","5","rl","test","72","img/o_d_stripes.png","1","65","color,pattern,shape","226","0",""
"null","454457","HierDy0m2mgqzn","sub04","04","5","feedback","test","null","","","na","","226","",""
"628.3999996185303","455087","HierDy0m2mgqzn","sub04","04","5","rl","test","74","img/o_d_check.png","3","68","color,pattern,shape","227","0",""
"null","456106","HierDy0m2mgqzn","sub04","04","5","feedback","test","null","","","na","","227","",""
"690.1999998092651","456798","HierDy0m2mgqzn","sub04","04","5","rl","test","72","img/o_s_check.png","4","70","color,pattern,shape","228","0",""
"null","457807","HierDy0m2mgqzn","sub04","04","5","feedback","test","null","","","na","","228","",""
"1812.5999999046326","459622","HierDy0m2mgqzn","sub04","04","5","rl","test","65","img/o_s_stripes.png","2","83","color,pattern,shape","229","0",""
"null","460642","HierDy0m2mgqzn","sub04","04","5","feedback","test","null","","","na","","229","",""
"115.80000019073486","460760","HierDy0m2mgqzn","sub04","04","5","rl","test","72","img/b_s_stripes.png","6","74","color,pattern,shape","230","0",""
"null","461773","HierDy0m2mgqzn","sub04","04","5","feedback","test","null","","","na","","230","",""
"258.5","462034","HierDy0m2mgqzn","sub04","04","5","rl","test","83","img/o_d_stripes.png","1","65","color,pattern,shape","231","0",""
"null","463039","HierDy0m2mgqzn","sub04","04","5","feedback","test","null","","","na","","231","",""
"333.7000002861023","463374","HierDy0m2mgqzn","sub04","04","5","rl","test","68","img/o_d_stripes.png","1","65","color,pattern,shape","232","0",""
"null","464389","HierDy0m2mgqzn","sub04","04","5","feedback","test","null","","","na","","232","",""
"579.5999999046326","464970","HierDy0m2mgqzn","sub04","04","5","rl","test","70","img/b_d_stripes.png","5","72","color,pattern,shape","233","0",""
"null","465974","HierDy0m2mgqzn","sub04","04","5","feedback","test","null","","","na","","233","",""
"351.80000019073486","466327","HierDy0m2mgqzn","sub04","04","5","rl","test","76","img/b_s_stripes.png","6","74","color,pattern,shape","234","0",""
"null","467348","HierDy0m2mgqzn","sub04","04","5","feedback","test","null","","","na","","234","",""
"775.7999997138977","468126","HierDy0m2mgqzn","sub04","04","5","rl","test","65","img/o_s_check.png","4","70","color,pattern,shape","235","0",""
"null","469141","HierDy0m2mgqzn","sub04","04","5","feedback","test","null","","","na","","235","",""
"131.80000019073486","469275","HierDy0m2mgqzn","sub04","04","5","rl","test","83","img/b_d_stripes.png","5","72","color,pattern,shape","236","0",""
"null","470299","HierDy0m2mgqzn","sub04","04","5","feedback","test","null","","","na","","236","",""
"121.90000009536743","470423","HierDy0m2mgqzn","sub04","04","5","rl","test","74","img/b_s_check.png","8","76","color,pattern,shape","237","0",""
"null","471441","HierDy0m2mgqzn","sub04","04","5","feedback","test","null","","","na","","237","",""
"114.59999990463257","471557","HierDy0m2mgqzn","sub04","04","5","rl","test","65","img/b_d_check.png","7","75","color,pattern,shape","238","0",""
"null","472565","HierDy0m2mgqzn","sub04","04","5","feedback","test","null","","","na","","238","",""
"1037","473604","HierDy0m2mgqzn","sub04","04","5","rl","test","83","img/o_d_check.png","3","68","color,pattern,shape","239","0",""
"null","474624","HierDy0m2mgqzn","sub04","04","5","feedback","test","null","","","na","","239","",""
"1513.6000003814697","476140","HierDy0m2mgqzn","sub04","04","5","rl","test","74","img/o_s_stripes.png","2","83","color,pattern,shape","240","0",""
"null","477159","HierDy0m2mgqzn","sub04","04","5","feedback","test","null","","","na","","240","",""
"1929.1000003814697","479090","HierDy0m2mgqzn","sub04","04","5","rl","test","70","img/o_s_check.png","4","70","color,pattern,shape","241","1",""
"null","480107","HierDy0m2mgqzn","sub04","04","5","feedback","test","null","","","na","","241","",""
"null","482631","HierDy0m2mgqzn","sub04","04","5","rl","test","null","img/b_d_stripes.png","5","72","color,pattern,shape","242","0",""
"null","483647","HierDy0m2mgqzn","sub04","04","5","feedback","test","null","","","na","","242","",""
"927.4000000953674","484576","HierDy0m2mgqzn","sub04","04","5","rl","test","74","img/o_s_stripes.png","2","83","color,pattern,shape","243","0",""
"null","485580","HierDy0m2mgqzn","sub04","04","5","feedback","test","null","","","na","","243","",""
"651.5999999046326","486234","HierDy0m2mgqzn","sub04","04","5","rl","test","83","img/o_d_stripes.png","1","65","color,pattern,shape","244","0",""
"null","487248","HierDy0m2mgqzn","sub04","04","5","feedback","test","null","","","na","","244","",""
"null","489766","HierDy0m2mgqzn","sub04","04","5","rl","test","null","img/b_s_check.png","8","76","color,pattern,shape","245","0",""
"null","490780","HierDy0m2mgqzn","sub04","04","5","feedback","test","null","","","na","","245","",""
"1322.7000002861023","492105","HierDy0m2mgqzn","sub04","04","5","rl","test","70","img/o_d_check.png","3","68","color,pattern,shape","246","0",""
"null","493121","HierDy0m2mgqzn","sub04","04","5","feedback","test","null","","","na","","246","",""
"1422.3000001907349","494545","HierDy0m2mgqzn","sub04","04","5","rl","test","68","img/b_s_stripes.png","6","74","color,pattern,shape","247","0",""
"null","495555","HierDy0m2mgqzn","sub04","04","5","feedback","test","null","","","na","","247","",""
"null","498065","HierDy0m2mgqzn","sub04","04","5","rl","test","null","img/b_d_check.png","7","75","color,pattern,shape","248","0",""
"null","499067","HierDy0m2mgqzn","sub04","04","5","feedback","test","null","","","na","","248","",""
"4398.300000190735","503475","HierDy0m2mgqzn","sub04","04","5","","","","","","","","","","{""Q0"":""8""}"
"1983.8000001907349","505465","HierDy0m2mgqzn","sub04","04","5","","","","","","","","","","{""Q0"":""""}"
"3386.4000000953674","508852","HierDy0m2mgqzn","sub04","04","5","","","","","","","","","",""
