"rt","time_elapsed","subject","subID","group","day","trialType","phase","key_press","stim","stimNum","corrresp","hierarchy","trialNum","corr","responses"
"1671.7000000029802","1673","HierDytqmetf69","sub18","06","04","","","","","","","","","",""
"","3859","HierDytqmetf69","sub18","06","04","fullscreen","","","","","","","","",""
"2009.3999999985099","5869","HierDytqmetf69","sub18","06","04","","prac","","","","","","","",""
"821.2000000029802","6693","HierDytqmetf69","sub18","06","04","","","32","","","","","","",""
"1235.0999999940395","7929","HierDytqmetf69","sub18","06","04","","prac","","","","","","","",""
"2348.6999999955297","10278","HierDytqmetf69","sub18","06","04","rl","test","75","img/o_t_check.png","5","72","pattern,shape,color","1","0",""
"null","11285","HierDytqmetf69","sub18","06","04","feedback","test","null","","","na","","1","",""
"1035.6000000014901","12322","HierDytqmetf69","sub18","06","04","rl","test","70","img/r_s_stripes.png","4","70","pattern,shape,color","2","1",""
"null","13324","HierDytqmetf69","sub18","06","04","feedback","test","null","","","na","","2","",""
"1048.8999999985099","14373","HierDytqmetf69","sub18","06","04","rl","test","83","img/o_t_stripes.png","1","65","pattern,shape,color","3","0",""
"null","15382","HierDytqmetf69","sub18","06","04","feedback","test","null","","","na","","3","",""
"979.8999999985099","16363","HierDytqmetf69","sub18","06","04","rl","test","68","img/o_s_stripes.png","3","68","pattern,shape,color","4","1",""
"null","17376","HierDytqmetf69","sub18","06","04","feedback","test","null","","","na","","4","",""
"984.4000000059605","18361","HierDytqmetf69","sub18","06","04","rl","test","76","img/r_s_check.png","8","76","pattern,shape,color","5","1",""
"null","19365","HierDytqmetf69","sub18","06","04","feedback","test","null","","","na","","5","",""
"1053.7999999970198","20420","HierDytqmetf69","sub18","06","04","rl","test","72","img/r_t_check.png","6","74","pattern,shape,color","6","0",""
"null","21427","HierDytqmetf69","sub18","06","04","feedback","test","null","","","na","","6","",""
"1033.5","22462","HierDytqmetf69","sub18","06","04","rl","test","68","img/r_t_stripes.png","2","83","pattern,shape,color","7","0",""
"null","23468","HierDytqmetf69","sub18","06","04","feedback","test","null","","","na","","7","",""
"1435.8999999985099","24905","HierDytqmetf69","sub18","06","04","rl","test","75","img/o_s_check.png","7","75","pattern,shape,color","8","1",""
"null","25909","HierDytqmetf69","sub18","06","04","feedback","test","null","","","na","","8","",""
"1095.8999999985099","27006","HierDytqmetf69","sub18","06","04","rl","test","74","img/r_t_check.png","6","74","pattern,shape,color","9","1",""
"null","28016","HierDytqmetf69","sub18","06","04","feedback","test","null","","","na","","9","",""
"968","28985","HierDytqmetf69","sub18","06","04","rl","test","83","img/o_t_stripes.png","1","65","pattern,shape,color","10","0",""
"null","29989","HierDytqmetf69","sub18","06","04","feedback","test","null","","","na","","10","",""
"805.9000000059605","30796","HierDytqmetf69","sub18","06","04","rl","test","83","img/r_t_stripes.png","2","83","pattern,shape,color","11","1",""
"null","31804","HierDytqmetf69","sub18","06","04","feedback","test","null","","","na","","11","",""
"1173.8999999985099","32979","HierDytqmetf69","sub18","06","04","rl","test","72","img/o_t_check.png","5","72","pattern,shape,color","12","1",""
"null","33988","HierDytqmetf69","sub18","06","04","feedback","test","null","","","na","","12","",""
"1026","35015","HierDytqmetf69","sub18","06","04","rl","test","83","img/r_t_stripes.png","2","83","pattern,shape,color","13","1",""
"null","36023","HierDytqmetf69","sub18","06","04","feedback","test","null","","","na","","13","",""
"674.1000000014901","36698","HierDytqmetf69","sub18","06","04","rl","test","70","img/r_s_stripes.png","4","70","pattern,shape,color","14","1",""
"null","37700","HierDytqmetf69","sub18","06","04","feedback","test","null","","","na","","14","",""
"1206.1000000014901","38907","HierDytqmetf69","sub18","06","04","rl","test","76","img/o_s_check.png","7","75","pattern,shape,color","15","0",""
"null","39921","HierDytqmetf69","sub18","06","04","feedback","test","null","","","na","","15","",""
"2359.2000000029802","42281","HierDytqmetf69","sub18","06","04","rl","test","76","img/r_s_check.png","8","76","pattern,shape,color","16","1",""
"null","43287","HierDytqmetf69","sub18","06","04","feedback","test","null","","","na","","16","",""
"1118","44406","HierDytqmetf69","sub18","06","04","rl","test","68","img/o_s_stripes.png","3","68","pattern,shape,color","17","1",""
"null","45416","HierDytqmetf69","sub18","06","04","feedback","test","null","","","na","","17","",""
"646.6999999955297","46064","HierDytqmetf69","sub18","06","04","rl","test","68","img/o_s_stripes.png","3","68","pattern,shape,color","18","1",""
"null","47070","HierDytqmetf69","sub18","06","04","feedback","test","null","","","na","","18","",""
"795.1000000014901","47866","HierDytqmetf69","sub18","06","04","rl","test","70","img/r_s_stripes.png","4","70","pattern,shape,color","19","1",""
"null","48869","HierDytqmetf69","sub18","06","04","feedback","test","null","","","na","","19","",""
"1146.1000000014901","50016","HierDytqmetf69","sub18","06","04","rl","test","75","img/o_t_check.png","5","72","pattern,shape,color","20","0",""
"null","51022","HierDytqmetf69","sub18","06","04","feedback","test","null","","","na","","20","",""
"1532.5","52555","HierDytqmetf69","sub18","06","04","rl","test","76","img/r_t_check.png","6","74","pattern,shape,color","21","0",""
"null","53567","HierDytqmetf69","sub18","06","04","feedback","test","null","","","na","","21","",""
"834.5","54403","HierDytqmetf69","sub18","06","04","rl","test","76","img/r_s_check.png","8","76","pattern,shape,color","22","1",""
"null","55419","HierDytqmetf69","sub18","06","04","feedback","test","null","","","na","","22","",""
"756.8999999985099","56177","HierDytqmetf69","sub18","06","04","rl","test","76","img/r_s_check.png","8","76","pattern,shape,color","23","1",""
"null","57183","HierDytqmetf69","sub18","06","04","feedback","test","null","","","na","","23","",""
"937.3999999985099","58122","HierDytqmetf69","sub18","06","04","rl","test","83","img/o_t_stripes.png","1","65","pattern,shape,color","24","0",""
"null","59124","HierDytqmetf69","sub18","06","04","feedback","test","null","","","na","","24","",""
"917.6999999955297","60043","HierDytqmetf69","sub18","06","04","rl","test","75","img/o_s_check.png","7","75","pattern,shape,color","25","1",""
"null","61056","HierDytqmetf69","sub18","06","04","feedback","test","null","","","na","","25","",""
"1184.7999999970198","62242","HierDytqmetf69","sub18","06","04","rl","test","65","img/o_t_stripes.png","1","65","pattern,shape,color","26","1",""
"null","63248","HierDytqmetf69","sub18","06","04","feedback","test","null","","","na","","26","",""
"499.59999999403954","63749","HierDytqmetf69","sub18","06","04","rl","test","83","img/r_t_stripes.png","2","83","pattern,shape,color","27","1",""
"null","64757","HierDytqmetf69","sub18","06","04","feedback","test","null","","","na","","27","",""
"893","65651","HierDytqmetf69","sub18","06","04","rl","test","75","img/o_s_check.png","7","75","pattern,shape,color","28","1",""
"null","66661","HierDytqmetf69","sub18","06","04","feedback","test","null","","","na","","28","",""
"1454.2000000029802","68116","HierDytqmetf69","sub18","06","04","rl","test","74","img/r_t_check.png","6","74","pattern,shape,color","29","1",""
"null","69127","HierDytqmetf69","sub18","06","04","feedback","test","null","","","na","","29","",""
"1025.1999999955297","70155","HierDytqmetf69","sub18","06","04","rl","test","68","img/o_s_stripes.png","3","68","pattern,shape,color","30","1",""
"null","71166","HierDytqmetf69","sub18","06","04","feedback","test","null","","","na","","30","",""
"853.6000000014901","72021","HierDytqmetf69","sub18","06","04","rl","test","72","img/o_t_check.png","5","72","pattern,shape,color","31","1",""
"null","73028","HierDytqmetf69","sub18","06","04","feedback","test","null","","","na","","31","",""
"657.1000000014901","73686","HierDytqmetf69","sub18","06","04","rl","test","70","img/r_s_stripes.png","4","70","pattern,shape,color","32","1",""
"null","74694","HierDytqmetf69","sub18","06","04","feedback","test","null","","","na","","32","",""
"1585.6999999955297","76282","HierDytqmetf69","sub18","06","04","rl","test","76","img/r_s_check.png","8","76","pattern,shape,color","33","1",""
"null","77287","HierDytqmetf69","sub18","06","04","feedback","test","null","","","na","","33","",""
"1774","79062","HierDytqmetf69","sub18","06","04","rl","test","83","img/r_t_stripes.png","2","83","pattern,shape,color","34","1",""
"null","80070","HierDytqmetf69","sub18","06","04","feedback","test","null","","","na","","34","",""
"689.7000000029802","80761","HierDytqmetf69","sub18","06","04","rl","test","65","img/o_t_stripes.png","1","65","pattern,shape,color","35","1",""
"null","81765","HierDytqmetf69","sub18","06","04","feedback","test","null","","","na","","35","",""
"938","82704","HierDytqmetf69","sub18","06","04","rl","test","68","img/o_s_stripes.png","3","68","pattern,shape,color","36","1",""
"null","83713","HierDytqmetf69","sub18","06","04","feedback","test","null","","","na","","36","",""
"670.3000000044703","84385","HierDytqmetf69","sub18","06","04","rl","test","70","img/r_s_stripes.png","4","70","pattern,shape,color","37","1",""
"null","85393","HierDytqmetf69","sub18","06","04","feedback","test","null","","","na","","37","",""
"843","86238","HierDytqmetf69","sub18","06","04","rl","test","70","img/r_s_stripes.png","4","70","pattern,shape,color","38","1",""
"null","87247","HierDytqmetf69","sub18","06","04","feedback","test","null","","","na","","38","",""
"951.6999999955297","88201","HierDytqmetf69","sub18","06","04","rl","test","75","img/o_s_check.png","7","75","pattern,shape,color","39","1",""
"null","89208","HierDytqmetf69","sub18","06","04","feedback","test","null","","","na","","39","",""
"1235.6000000014901","90444","HierDytqmetf69","sub18","06","04","rl","test","68","img/o_s_stripes.png","3","68","pattern,shape,color","40","1",""
"null","91456","HierDytqmetf69","sub18","06","04","feedback","test","null","","","na","","40","",""
"1123.6999999955297","92581","HierDytqmetf69","sub18","06","04","rl","test","75","img/o_t_check.png","5","72","pattern,shape,color","41","0",""
"null","93592","HierDytqmetf69","sub18","06","04","feedback","test","null","","","na","","41","",""
"900.3000000044703","94493","HierDytqmetf69","sub18","06","04","rl","test","75","img/o_s_check.png","7","75","pattern,shape,color","42","1",""
"null","95501","HierDytqmetf69","sub18","06","04","feedback","test","null","","","na","","42","",""
"1092.6999999955297","96595","HierDytqmetf69","sub18","06","04","rl","test","68","img/r_t_check.png","6","74","pattern,shape,color","43","0",""
"null","97605","HierDytqmetf69","sub18","06","04","feedback","test","null","","","na","","43","",""
"1936.8999999985099","99542","HierDytqmetf69","sub18","06","04","rl","test","74","img/r_t_check.png","6","74","pattern,shape,color","44","1",""
"null","100553","HierDytqmetf69","sub18","06","04","feedback","test","null","","","na","","44","",""
"1008.6000000014901","101562","HierDytqmetf69","sub18","06","04","rl","test","76","img/r_s_check.png","8","76","pattern,shape,color","45","1",""
"null","102582","HierDytqmetf69","sub18","06","04","feedback","test","null","","","na","","45","",""
"1970.1999999955297","104553","HierDytqmetf69","sub18","06","04","rl","test","74","img/r_t_check.png","6","74","pattern,shape,color","46","1",""
"null","105559","HierDytqmetf69","sub18","06","04","feedback","test","null","","","na","","46","",""
"1432.2000000029802","106993","HierDytqmetf69","sub18","06","04","rl","test","75","img/o_t_check.png","5","72","pattern,shape,color","47","0",""
"null","107998","HierDytqmetf69","sub18","06","04","feedback","test","null","","","na","","47","",""
"979.6000000014901","108979","HierDytqmetf69","sub18","06","04","rl","test","83","img/r_t_stripes.png","2","83","pattern,shape,color","48","1",""
"null","109986","HierDytqmetf69","sub18","06","04","feedback","test","null","","","na","","48","",""
"787.2000000029802","110775","HierDytqmetf69","sub18","06","04","rl","test","68","img/o_s_stripes.png","3","68","pattern,shape,color","49","1",""
"null","111780","HierDytqmetf69","sub18","06","04","feedback","test","null","","","na","","49","",""
"875.3999999985099","112657","HierDytqmetf69","sub18","06","04","rl","test","83","img/o_t_stripes.png","1","65","pattern,shape,color","50","0",""
"null","113664","HierDytqmetf69","sub18","06","04","feedback","test","null","","","na","","50","",""
"709.8000000044703","114374","HierDytqmetf69","sub18","06","04","rl","test","83","img/r_t_stripes.png","2","83","pattern,shape,color","51","1",""
"null","115382","HierDytqmetf69","sub18","06","04","feedback","test","null","","","na","","51","",""
"833.5","116217","HierDytqmetf69","sub18","06","04","rl","test","65","img/o_t_stripes.png","1","65","pattern,shape,color","52","1",""
"null","117225","HierDytqmetf69","sub18","06","04","feedback","test","null","","","na","","52","",""
"836.2000000029802","118062","HierDytqmetf69","sub18","06","04","rl","test","70","img/r_s_stripes.png","4","70","pattern,shape,color","53","1",""
"null","119069","HierDytqmetf69","sub18","06","04","feedback","test","null","","","na","","53","",""
"1144.6999999955297","120215","HierDytqmetf69","sub18","06","04","rl","test","74","img/r_t_check.png","6","74","pattern,shape,color","54","1",""
"null","121221","HierDytqmetf69","sub18","06","04","feedback","test","null","","","na","","54","",""
"1138.7999999970198","122360","HierDytqmetf69","sub18","06","04","rl","test","75","img/o_s_check.png","7","75","pattern,shape,color","55","1",""
"null","123367","HierDytqmetf69","sub18","06","04","feedback","test","null","","","na","","55","",""
"801.6000000014901","124169","HierDytqmetf69","sub18","06","04","rl","test","72","img/o_t_check.png","5","72","pattern,shape,color","56","1",""
"null","125176","HierDytqmetf69","sub18","06","04","feedback","test","null","","","na","","56","",""
"829.1000000014901","126007","HierDytqmetf69","sub18","06","04","rl","test","76","img/r_s_check.png","8","76","pattern,shape,color","57","1",""
"null","127017","HierDytqmetf69","sub18","06","04","feedback","test","null","","","na","","57","",""
"1100.3999999985099","128118","HierDytqmetf69","sub18","06","04","rl","test","83","img/r_t_stripes.png","2","83","pattern,shape,color","58","1",""
"null","129126","HierDytqmetf69","sub18","06","04","feedback","test","null","","","na","","58","",""
"890.3999999985099","130017","HierDytqmetf69","sub18","06","04","rl","test","75","img/o_s_check.png","7","75","pattern,shape,color","59","1",""
"null","131024","HierDytqmetf69","sub18","06","04","feedback","test","null","","","na","","59","",""
"1157.6000000014901","132183","HierDytqmetf69","sub18","06","04","rl","test","72","img/o_t_check.png","5","72","pattern,shape,color","60","1",""
"null","133191","HierDytqmetf69","sub18","06","04","feedback","test","null","","","na","","60","",""
"988.1000000014901","134180","HierDytqmetf69","sub18","06","04","rl","test","70","img/r_s_stripes.png","4","70","pattern,shape,color","61","1",""
"null","135192","HierDytqmetf69","sub18","06","04","feedback","test","null","","","na","","61","",""
"895.1000000014901","136088","HierDytqmetf69","sub18","06","04","rl","test","76","img/r_s_check.png","8","76","pattern,shape,color","62","1",""
"null","137093","HierDytqmetf69","sub18","06","04","feedback","test","null","","","na","","62","",""
"1324.1999999955297","138419","HierDytqmetf69","sub18","06","04","rl","test","65","img/o_t_stripes.png","1","65","pattern,shape,color","63","1",""
"null","139425","HierDytqmetf69","sub18","06","04","feedback","test","null","","","na","","63","",""
"824","140250","HierDytqmetf69","sub18","06","04","rl","test","70","img/o_s_stripes.png","3","68","pattern,shape,color","64","0",""
"null","141258","HierDytqmetf69","sub18","06","04","feedback","test","null","","","na","","64","",""
"794.3000000044703","142053","HierDytqmetf69","sub18","06","04","rl","test","75","img/r_s_check.png","8","76","pattern,shape,color","65","0",""
"null","143061","HierDytqmetf69","sub18","06","04","feedback","test","null","","","na","","65","",""
"1182.1000000014901","144245","HierDytqmetf69","sub18","06","04","rl","test","68","img/o_s_stripes.png","3","68","pattern,shape,color","66","1",""
"null","145257","HierDytqmetf69","sub18","06","04","feedback","test","null","","","na","","66","",""
"907.3999999985099","146166","HierDytqmetf69","sub18","06","04","rl","test","74","img/r_t_check.png","6","74","pattern,shape,color","67","1",""
"null","147174","HierDytqmetf69","sub18","06","04","feedback","test","null","","","na","","67","",""
"920.3999999985099","148095","HierDytqmetf69","sub18","06","04","rl","test","83","img/r_t_stripes.png","2","83","pattern,shape,color","68","1",""
"null","149106","HierDytqmetf69","sub18","06","04","feedback","test","null","","","na","","68","",""
"543","149650","HierDytqmetf69","sub18","06","04","rl","test","65","img/o_t_stripes.png","1","65","pattern,shape,color","69","1",""
"null","150658","HierDytqmetf69","sub18","06","04","feedback","test","null","","","na","","69","",""
"756.5","151416","HierDytqmetf69","sub18","06","04","rl","test","70","img/r_s_stripes.png","4","70","pattern,shape,color","70","1",""
"null","152424","HierDytqmetf69","sub18","06","04","feedback","test","null","","","na","","70","",""
"976.7999999970198","153402","HierDytqmetf69","sub18","06","04","rl","test","75","img/o_s_check.png","7","75","pattern,shape,color","71","1",""
"null","154406","HierDytqmetf69","sub18","06","04","feedback","test","null","","","na","","71","",""
"667.3000000044703","155075","HierDytqmetf69","sub18","06","04","rl","test","76","img/r_s_check.png","8","76","pattern,shape,color","72","1",""
"null","156080","HierDytqmetf69","sub18","06","04","feedback","test","null","","","na","","72","",""
"1023.5","157105","HierDytqmetf69","sub18","06","04","rl","test","83","img/r_t_stripes.png","2","83","pattern,shape,color","73","1",""
"null","158114","HierDytqmetf69","sub18","06","04","feedback","test","null","","","na","","73","",""
"1069.8999999985099","159185","HierDytqmetf69","sub18","06","04","rl","test","72","img/o_t_check.png","5","72","pattern,shape,color","74","1",""
"null","160192","HierDytqmetf69","sub18","06","04","feedback","test","null","","","na","","74","",""
"581.8999999985099","160775","HierDytqmetf69","sub18","06","04","rl","test","72","img/o_t_check.png","5","72","pattern,shape,color","75","1",""
"null","161782","HierDytqmetf69","sub18","06","04","feedback","test","null","","","na","","75","",""
"866.0999999940395","162649","HierDytqmetf69","sub18","06","04","rl","test","83","img/o_t_stripes.png","1","65","pattern,shape,color","76","0",""
"null","163657","HierDytqmetf69","sub18","06","04","feedback","test","null","","","na","","76","",""
"1148.5","164807","HierDytqmetf69","sub18","06","04","rl","test","74","img/r_t_check.png","6","74","pattern,shape,color","77","1",""
"null","165814","HierDytqmetf69","sub18","06","04","feedback","test","null","","","na","","77","",""
"816.7000000029802","166632","HierDytqmetf69","sub18","06","04","rl","test","70","img/r_s_stripes.png","4","70","pattern,shape,color","78","1",""
"null","167637","HierDytqmetf69","sub18","06","04","feedback","test","null","","","na","","78","",""
"736.5","168375","HierDytqmetf69","sub18","06","04","rl","test","68","img/o_s_stripes.png","3","68","pattern,shape,color","79","1",""
"null","169384","HierDytqmetf69","sub18","06","04","feedback","test","null","","","na","","79","",""
"679.3000000044703","170064","HierDytqmetf69","sub18","06","04","rl","test","65","img/o_t_check.png","5","72","pattern,shape,color","80","0",""
"null","171072","HierDytqmetf69","sub18","06","04","feedback","test","null","","","na","","80","",""
"1573.7999999970198","172647","HierDytqmetf69","sub18","06","04","rl","test","75","img/o_s_check.png","7","75","pattern,shape,color","81","1",""
"null","173655","HierDytqmetf69","sub18","06","04","feedback","test","null","","","na","","81","",""
"885.8999999985099","174543","HierDytqmetf69","sub18","06","04","rl","test","70","img/r_s_stripes.png","4","70","pattern,shape,color","82","1",""
"null","175552","HierDytqmetf69","sub18","06","04","feedback","test","null","","","na","","82","",""
"1424.3000000044703","176978","HierDytqmetf69","sub18","06","04","rl","test","74","img/r_t_check.png","6","74","pattern,shape,color","83","1",""
"null","177981","HierDytqmetf69","sub18","06","04","feedback","test","null","","","na","","83","",""
"964.3000000044703","178946","HierDytqmetf69","sub18","06","04","rl","test","75","img/o_s_check.png","7","75","pattern,shape,color","84","1",""
"null","179950","HierDytqmetf69","sub18","06","04","feedback","test","null","","","na","","84","",""
"1671.6000000014901","181623","HierDytqmetf69","sub18","06","04","rl","test","83","img/r_t_stripes.png","2","83","pattern,shape,color","85","1",""
"null","182632","HierDytqmetf69","sub18","06","04","feedback","test","null","","","na","","85","",""
"877","183510","HierDytqmetf69","sub18","06","04","rl","test","76","img/r_s_check.png","8","76","pattern,shape,color","86","1",""
"null","184517","HierDytqmetf69","sub18","06","04","feedback","test","null","","","na","","86","",""
"1082.7999999970198","185602","HierDytqmetf69","sub18","06","04","rl","test","65","img/o_t_stripes.png","1","65","pattern,shape,color","87","1",""
"null","186605","HierDytqmetf69","sub18","06","04","feedback","test","null","","","na","","87","",""
"923.5","187530","HierDytqmetf69","sub18","06","04","rl","test","68","img/o_s_stripes.png","3","68","pattern,shape,color","88","1",""
"null","188538","HierDytqmetf69","sub18","06","04","feedback","test","null","","","na","","88","",""
"942.2999999970198","189481","HierDytqmetf69","sub18","06","04","rl","test","65","img/o_t_stripes.png","1","65","pattern,shape,color","89","1",""
"null","190488","HierDytqmetf69","sub18","06","04","feedback","test","null","","","na","","89","",""
"728.5","191218","HierDytqmetf69","sub18","06","04","rl","test","70","img/r_s_stripes.png","4","70","pattern,shape,color","90","1",""
"null","192223","HierDytqmetf69","sub18","06","04","feedback","test","null","","","na","","90","",""
"1356.3000000044703","193580","HierDytqmetf69","sub18","06","04","rl","test","83","img/r_t_stripes.png","2","83","pattern,shape,color","91","1",""
"null","194586","HierDytqmetf69","sub18","06","04","feedback","test","null","","","na","","91","",""
"528.3000000044703","195115","HierDytqmetf69","sub18","06","04","rl","test","83","img/r_t_stripes.png","2","83","pattern,shape,color","92","1",""
"null","196122","HierDytqmetf69","sub18","06","04","feedback","test","null","","","na","","92","",""
"1023.2999999970198","197146","HierDytqmetf69","sub18","06","04","rl","test","76","img/r_s_check.png","8","76","pattern,shape,color","93","1",""
"null","198151","HierDytqmetf69","sub18","06","04","feedback","test","null","","","na","","93","",""
"1268.8999999985099","199421","HierDytqmetf69","sub18","06","04","rl","test","74","img/r_t_check.png","6","74","pattern,shape,color","94","1",""
"null","200434","HierDytqmetf69","sub18","06","04","feedback","test","null","","","na","","94","",""
"963.7999999970198","201399","HierDytqmetf69","sub18","06","04","rl","test","72","img/o_t_check.png","5","72","pattern,shape,color","95","1",""
"null","202407","HierDytqmetf69","sub18","06","04","feedback","test","null","","","na","","95","",""
"741.5","203149","HierDytqmetf69","sub18","06","04","rl","test","74","img/r_t_check.png","6","74","pattern,shape,color","96","1",""
"null","204160","HierDytqmetf69","sub18","06","04","feedback","test","null","","","na","","96","",""
"1042.3999999985099","205204","HierDytqmetf69","sub18","06","04","rl","test","75","img/o_s_check.png","7","75","pattern,shape,color","97","1",""
"null","206210","HierDytqmetf69","sub18","06","04","feedback","test","null","","","na","","97","",""
"null","208719","HierDytqmetf69","sub18","06","04","rl","test","null","img/r_s_check.png","8","76","pattern,shape,color","98","0",""
"null","209720","HierDytqmetf69","sub18","06","04","feedback","test","null","","","na","","98","",""
"1133.8000000044703","210855","HierDytqmetf69","sub18","06","04","rl","test","70","img/o_s_stripes.png","3","68","pattern,shape,color","99","0",""
"null","211864","HierDytqmetf69","sub18","06","04","feedback","test","null","","","na","","99","",""
"802.8000000044703","212668","HierDytqmetf69","sub18","06","04","rl","test","68","img/o_s_stripes.png","3","68","pattern,shape,color","100","1",""
"null","213670","HierDytqmetf69","sub18","06","04","feedback","test","null","","","na","","100","",""
"848.6000000014901","214520","HierDytqmetf69","sub18","06","04","rl","test","75","img/o_s_check.png","7","75","pattern,shape,color","101","1",""
"null","215529","HierDytqmetf69","sub18","06","04","feedback","test","null","","","na","","101","",""
"786.6000000014901","216317","HierDytqmetf69","sub18","06","04","rl","test","83","img/o_t_check.png","5","72","pattern,shape,color","102","0",""
"null","217326","HierDytqmetf69","sub18","06","04","feedback","test","null","","","na","","102","",""
"1346.1000000014901","218674","HierDytqmetf69","sub18","06","04","rl","test","83","img/o_t_stripes.png","1","65","pattern,shape,color","103","0",""
"null","219679","HierDytqmetf69","sub18","06","04","feedback","test","null","","","na","","103","",""
"858.6999999955297","220539","HierDytqmetf69","sub18","06","04","rl","test","75","img/o_s_check.png","7","75","pattern,shape,color","104","1",""
"null","221543","HierDytqmetf69","sub18","06","04","feedback","test","null","","","na","","104","",""
"862.5","222406","HierDytqmetf69","sub18","06","04","rl","test","70","img/r_s_stripes.png","4","70","pattern,shape,color","105","1",""
"null","223415","HierDytqmetf69","sub18","06","04","feedback","test","null","","","na","","105","",""
"1079.3000000044703","224496","HierDytqmetf69","sub18","06","04","rl","test","74","img/r_t_check.png","6","74","pattern,shape,color","106","1",""
"null","225503","HierDytqmetf69","sub18","06","04","feedback","test","null","","","na","","106","",""
"1061.5","226565","HierDytqmetf69","sub18","06","04","rl","test","83","img/r_t_stripes.png","2","83","pattern,shape,color","107","1",""
"null","227575","HierDytqmetf69","sub18","06","04","feedback","test","null","","","na","","107","",""
"1037.8999999985099","228614","HierDytqmetf69","sub18","06","04","rl","test","65","img/o_t_stripes.png","1","65","pattern,shape,color","108","1",""
"null","229626","HierDytqmetf69","sub18","06","04","feedback","test","null","","","na","","108","",""
"754.5999999940395","230381","HierDytqmetf69","sub18","06","04","rl","test","70","img/r_s_stripes.png","4","70","pattern,shape,color","109","1",""
"null","231390","HierDytqmetf69","sub18","06","04","feedback","test","null","","","na","","109","",""
"1036.8999999985099","232428","HierDytqmetf69","sub18","06","04","rl","test","72","img/o_t_check.png","5","72","pattern,shape,color","110","1",""
"null","233434","HierDytqmetf69","sub18","06","04","feedback","test","null","","","na","","110","",""
"897.8999999985099","234333","HierDytqmetf69","sub18","06","04","rl","test","75","img/r_s_check.png","8","76","pattern,shape,color","111","0",""
"null","235347","HierDytqmetf69","sub18","06","04","feedback","test","null","","","na","","111","",""
"1204","236552","HierDytqmetf69","sub18","06","04","rl","test","68","img/o_s_stripes.png","3","68","pattern,shape,color","112","1",""
"null","237562","HierDytqmetf69","sub18","06","04","feedback","test","null","","","na","","112","",""
"1033.3000000044703","238596","HierDytqmetf69","sub18","06","04","rl","test","74","img/o_t_check.png","5","72","pattern,shape,color","113","0",""
"null","239599","HierDytqmetf69","sub18","06","04","feedback","test","null","","","na","","113","",""
"926.8000000044703","240528","HierDytqmetf69","sub18","06","04","rl","test","68","img/o_s_stripes.png","3","68","pattern,shape,color","114","1",""
"null","241536","HierDytqmetf69","sub18","06","04","feedback","test","null","","","na","","114","",""
"810.5","242348","HierDytqmetf69","sub18","06","04","rl","test","72","img/r_t_check.png","6","74","pattern,shape,color","115","0",""
"null","243359","HierDytqmetf69","sub18","06","04","feedback","test","null","","","na","","115","",""
"1015.6000000014901","244376","HierDytqmetf69","sub18","06","04","rl","test","76","img/r_s_check.png","8","76","pattern,shape,color","116","1",""
"null","245383","HierDytqmetf69","sub18","06","04","feedback","test","null","","","na","","116","",""
"1173.4000000059605","246558","HierDytqmetf69","sub18","06","04","rl","test","83","img/r_t_stripes.png","2","83","pattern,shape,color","117","1",""
"null","247570","HierDytqmetf69","sub18","06","04","feedback","test","null","","","na","","117","",""
"748.4000000059605","248319","HierDytqmetf69","sub18","06","04","rl","test","75","img/o_s_check.png","7","75","pattern,shape,color","118","1",""
"null","249327","HierDytqmetf69","sub18","06","04","feedback","test","null","","","na","","118","",""
"1176.8999999985099","250505","HierDytqmetf69","sub18","06","04","rl","test","74","img/o_t_check.png","5","72","pattern,shape,color","119","0",""
"null","251513","HierDytqmetf69","sub18","06","04","feedback","test","null","","","na","","119","",""
"945.1000000014901","252460","HierDytqmetf69","sub18","06","04","rl","test","70","img/r_s_stripes.png","4","70","pattern,shape,color","120","1",""
"null","253463","HierDytqmetf69","sub18","06","04","feedback","test","null","","","na","","120","",""
"1105.7999999970198","254570","HierDytqmetf69","sub18","06","04","rl","test","65","img/o_t_stripes.png","1","65","pattern,shape,color","121","1",""
"null","255577","HierDytqmetf69","sub18","06","04","feedback","test","null","","","na","","121","",""
"650","256228","HierDytqmetf69","sub18","06","04","rl","test","65","img/o_t_stripes.png","1","65","pattern,shape,color","122","1",""
"null","257233","HierDytqmetf69","sub18","06","04","feedback","test","null","","","na","","122","",""
"669","257903","HierDytqmetf69","sub18","06","04","rl","test","70","img/r_s_stripes.png","4","70","pattern,shape,color","123","1",""
"null","258910","HierDytqmetf69","sub18","06","04","feedback","test","null","","","na","","123","",""
"1194.3000000044703","260106","HierDytqmetf69","sub18","06","04","rl","test","75","img/r_s_check.png","8","76","pattern,shape,color","124","0",""
"null","261112","HierDytqmetf69","sub18","06","04","feedback","test","null","","","na","","124","",""
"831.7999999970198","261945","HierDytqmetf69","sub18","06","04","rl","test","75","img/o_s_check.png","7","75","pattern,shape,color","125","1",""
"null","262954","HierDytqmetf69","sub18","06","04","feedback","test","null","","","na","","125","",""
"1128.4000000059605","264084","HierDytqmetf69","sub18","06","04","rl","test","83","img/r_t_stripes.png","2","83","pattern,shape,color","126","1",""
"null","265089","HierDytqmetf69","sub18","06","04","feedback","test","null","","","na","","126","",""
"1669.1000000014901","266760","HierDytqmetf69","sub18","06","04","rl","test","72","img/r_t_check.png","6","74","pattern,shape,color","127","0",""
"null","267766","HierDytqmetf69","sub18","06","04","feedback","test","null","","","na","","127","",""
"989.7999999970198","268758","HierDytqmetf69","sub18","06","04","rl","test","68","img/o_s_stripes.png","3","68","pattern,shape,color","128","1",""
"null","269769","HierDytqmetf69","sub18","06","04","feedback","test","null","","","na","","128","",""
"565.8000000044703","270336","HierDytqmetf69","sub18","06","04","rl","test","68","img/o_s_stripes.png","3","68","pattern,shape,color","129","1",""
"null","271344","HierDytqmetf69","sub18","06","04","feedback","test","null","","","na","","129","",""
"901.3999999985099","272246","HierDytqmetf69","sub18","06","04","rl","test","76","img/r_s_check.png","8","76","pattern,shape,color","130","1",""
"null","273255","HierDytqmetf69","sub18","06","04","feedback","test","null","","","na","","130","",""
"1453.2000000029802","274709","HierDytqmetf69","sub18","06","04","rl","test","74","img/r_t_check.png","6","74","pattern,shape,color","131","1",""
"null","275719","HierDytqmetf69","sub18","06","04","feedback","test","null","","","na","","131","",""
"613.8999999985099","276334","HierDytqmetf69","sub18","06","04","rl","test","72","img/o_t_check.png","5","72","pattern,shape,color","132","1",""
"null","277343","HierDytqmetf69","sub18","06","04","feedback","test","null","","","na","","132","",""
"1194.1000000014901","278538","HierDytqmetf69","sub18","06","04","rl","test","65","img/o_t_stripes.png","1","65","pattern,shape,color","133","1",""
"null","279544","HierDytqmetf69","sub18","06","04","feedback","test","null","","","na","","133","",""
"1216.6000000014901","280762","HierDytqmetf69","sub18","06","04","rl","test","75","img/o_s_check.png","7","75","pattern,shape,color","134","1",""
"null","281767","HierDytqmetf69","sub18","06","04","feedback","test","null","","","na","","134","",""
"928.2999999970198","282697","HierDytqmetf69","sub18","06","04","rl","test","65","img/o_t_stripes.png","1","65","pattern,shape,color","135","1",""
"null","283705","HierDytqmetf69","sub18","06","04","feedback","test","null","","","na","","135","",""
"648.0999999940395","284354","HierDytqmetf69","sub18","06","04","rl","test","83","img/r_t_stripes.png","2","83","pattern,shape,color","136","1",""
"null","285364","HierDytqmetf69","sub18","06","04","feedback","test","null","","","na","","136","",""
"817.8999999985099","286183","HierDytqmetf69","sub18","06","04","rl","test","70","img/r_s_stripes.png","4","70","pattern,shape,color","137","1",""
"null","287196","HierDytqmetf69","sub18","06","04","feedback","test","null","","","na","","137","",""
"1693","288890","HierDytqmetf69","sub18","06","04","rl","test","75","img/o_s_check.png","7","75","pattern,shape,color","138","1",""
"null","289898","HierDytqmetf69","sub18","06","04","feedback","test","null","","","na","","138","",""
"853","290753","HierDytqmetf69","sub18","06","04","rl","test","70","img/r_s_stripes.png","4","70","pattern,shape,color","139","1",""
"null","291762","HierDytqmetf69","sub18","06","04","feedback","test","null","","","na","","139","",""
"1531","293294","HierDytqmetf69","sub18","06","04","rl","test","72","img/o_t_check.png","5","72","pattern,shape,color","140","1",""
"null","294303","HierDytqmetf69","sub18","06","04","feedback","test","null","","","na","","140","",""
"1035.5","295340","HierDytqmetf69","sub18","06","04","rl","test","68","img/o_s_stripes.png","3","68","pattern,shape,color","141","1",""
"null","296346","HierDytqmetf69","sub18","06","04","feedback","test","null","","","na","","141","",""
"1223.5","297571","HierDytqmetf69","sub18","06","04","rl","test","83","img/r_t_stripes.png","2","83","pattern,shape,color","142","1",""
"null","298579","HierDytqmetf69","sub18","06","04","feedback","test","null","","","na","","142","",""
"786.8999999985099","299367","HierDytqmetf69","sub18","06","04","rl","test","76","img/r_s_check.png","8","76","pattern,shape,color","143","1",""
"null","300376","HierDytqmetf69","sub18","06","04","feedback","test","null","","","na","","143","",""
"1037.2000000029802","301414","HierDytqmetf69","sub18","06","04","rl","test","68","img/o_s_stripes.png","3","68","pattern,shape,color","144","1",""
"null","302423","HierDytqmetf69","sub18","06","04","feedback","test","null","","","na","","144","",""
"1185.9000000059605","303610","HierDytqmetf69","sub18","06","04","rl","test","75","img/o_s_check.png","7","75","pattern,shape,color","145","1",""
"null","304619","HierDytqmetf69","sub18","06","04","feedback","test","null","","","na","","145","",""
"1300.3999999985099","305921","HierDytqmetf69","sub18","06","04","rl","test","72","img/r_t_check.png","6","74","pattern,shape,color","146","0",""
"null","306928","HierDytqmetf69","sub18","06","04","feedback","test","null","","","na","","146","",""
"997.5","307927","HierDytqmetf69","sub18","06","04","rl","test","83","img/r_t_stripes.png","2","83","pattern,shape,color","147","1",""
"null","308938","HierDytqmetf69","sub18","06","04","feedback","test","null","","","na","","147","",""
"614.6000000014901","309554","HierDytqmetf69","sub18","06","04","rl","test","65","img/o_t_check.png","5","72","pattern,shape,color","148","0",""
"null","310562","HierDytqmetf69","sub18","06","04","feedback","test","null","","","na","","148","",""
"1744.3000000044703","312307","HierDytqmetf69","sub18","06","04","rl","test","74","img/r_t_check.png","6","74","pattern,shape,color","149","1",""
"null","313315","HierDytqmetf69","sub18","06","04","feedback","test","null","","","na","","149","",""
"1145.8999999985099","314462","HierDytqmetf69","sub18","06","04","rl","test","65","img/o_t_stripes.png","1","65","pattern,shape,color","150","1",""
"null","315472","HierDytqmetf69","sub18","06","04","feedback","test","null","","","na","","150","",""
"581.3999999985099","316055","HierDytqmetf69","sub18","06","04","rl","test","65","img/o_t_stripes.png","1","65","pattern,shape,color","151","1",""
"null","317066","HierDytqmetf69","sub18","06","04","feedback","test","null","","","na","","151","",""
"829.6000000014901","317897","HierDytqmetf69","sub18","06","04","rl","test","76","img/r_s_check.png","8","76","pattern,shape,color","152","1",""
"null","318904","HierDytqmetf69","sub18","06","04","feedback","test","null","","","na","","152","",""
"714.1000000014901","319619","HierDytqmetf69","sub18","06","04","rl","test","70","img/r_s_stripes.png","4","70","pattern,shape,color","153","1",""
"null","320627","HierDytqmetf69","sub18","06","04","feedback","test","null","","","na","","153","",""
"1434.3999999985099","322063","HierDytqmetf69","sub18","06","04","rl","test","74","img/r_t_check.png","6","74","pattern,shape,color","154","1",""
"null","323071","HierDytqmetf69","sub18","06","04","feedback","test","null","","","na","","154","",""
"917.8999999985099","323990","HierDytqmetf69","sub18","06","04","rl","test","75","img/o_s_check.png","7","75","pattern,shape,color","155","1",""
"null","325000","HierDytqmetf69","sub18","06","04","feedback","test","null","","","na","","155","",""
"1047.8999999985099","326049","HierDytqmetf69","sub18","06","04","rl","test","68","img/o_s_stripes.png","3","68","pattern,shape,color","156","1",""
"null","327059","HierDytqmetf69","sub18","06","04","feedback","test","null","","","na","","156","",""
"713.7000000029802","327774","HierDytqmetf69","sub18","06","04","rl","test","70","img/r_s_stripes.png","4","70","pattern,shape,color","157","1",""
"null","328784","HierDytqmetf69","sub18","06","04","feedback","test","null","","","na","","157","",""
"1018.7999999970198","329803","HierDytqmetf69","sub18","06","04","rl","test","76","img/r_s_check.png","8","76","pattern,shape,color","158","1",""
"null","330810","HierDytqmetf69","sub18","06","04","feedback","test","null","","","na","","158","",""
"1604.5","332416","HierDytqmetf69","sub18","06","04","rl","test","74","img/o_t_check.png","5","72","pattern,shape,color","159","0",""
"null","333426","HierDytqmetf69","sub18","06","04","feedback","test","null","","","na","","159","",""
"864.6000000014901","334291","HierDytqmetf69","sub18","06","04","rl","test","72","img/o_t_check.png","5","72","pattern,shape,color","160","1",""
"null","335299","HierDytqmetf69","sub18","06","04","feedback","test","null","","","na","","160","",""
"1200.1000000014901","336500","HierDytqmetf69","sub18","06","04","rl","test","83","img/r_t_stripes.png","2","83","pattern,shape,color","161","1",""
"null","337504","HierDytqmetf69","sub18","06","04","feedback","test","null","","","na","","161","",""
"1011.3999999985099","338516","HierDytqmetf69","sub18","06","04","rl","test","75","img/o_s_check.png","7","75","pattern,shape,color","162","1",""
"null","339523","HierDytqmetf69","sub18","06","04","feedback","test","null","","","na","","162","",""
"1241.3999999985099","340766","HierDytqmetf69","sub18","06","04","rl","test","83","img/r_t_stripes.png","2","83","pattern,shape,color","163","1",""
"null","341767","HierDytqmetf69","sub18","06","04","feedback","test","null","","","na","","163","",""
"918.7000000029802","342687","HierDytqmetf69","sub18","06","04","rl","test","68","img/o_s_stripes.png","3","68","pattern,shape,color","164","1",""
"null","343696","HierDytqmetf69","sub18","06","04","feedback","test","null","","","na","","164","",""
"1628.7999999970198","345326","HierDytqmetf69","sub18","06","04","rl","test","74","img/r_t_check.png","6","74","pattern,shape,color","165","1",""
"null","346331","HierDytqmetf69","sub18","06","04","feedback","test","null","","","na","","165","",""
"1839.5","348172","HierDytqmetf69","sub18","06","04","rl","test","65","img/o_t_stripes.png","1","65","pattern,shape,color","166","1",""
"null","349181","HierDytqmetf69","sub18","06","04","feedback","test","null","","","na","","166","",""
"907.4000000059605","350089","HierDytqmetf69","sub18","06","04","rl","test","70","img/r_s_stripes.png","4","70","pattern,shape,color","167","1",""
"null","351098","HierDytqmetf69","sub18","06","04","feedback","test","null","","","na","","167","",""
"null","353603","HierDytqmetf69","sub18","06","04","rl","test","null","img/r_s_stripes.png","4","70","pattern,shape,color","168","0",""
"null","354612","HierDytqmetf69","sub18","06","04","feedback","test","null","","","na","","168","",""
"618.3999999985099","355232","HierDytqmetf69","sub18","06","04","rl","test","75","img/r_s_check.png","8","76","pattern,shape,color","169","0",""
"null","356242","HierDytqmetf69","sub18","06","04","feedback","test","null","","","na","","169","",""
"1172.6000000014901","357416","HierDytqmetf69","sub18","06","04","rl","test","83","img/r_t_stripes.png","2","83","pattern,shape,color","170","1",""
"null","358427","HierDytqmetf69","sub18","06","04","feedback","test","null","","","na","","170","",""
"1138.1000000014901","359566","HierDytqmetf69","sub18","06","04","rl","test","74","img/r_t_check.png","6","74","pattern,shape,color","171","1",""
"null","360571","HierDytqmetf69","sub18","06","04","feedback","test","null","","","na","","171","",""
"1078.5","361651","HierDytqmetf69","sub18","06","04","rl","test","76","img/r_s_check.png","8","76","pattern,shape,color","172","1",""
"null","362658","HierDytqmetf69","sub18","06","04","feedback","test","null","","","na","","172","",""
"1071","363731","HierDytqmetf69","sub18","06","04","rl","test","72","img/o_t_check.png","5","72","pattern,shape,color","173","1",""
"null","364737","HierDytqmetf69","sub18","06","04","feedback","test","null","","","na","","173","",""
"800.2000000029802","365538","HierDytqmetf69","sub18","06","04","rl","test","75","img/o_s_check.png","7","75","pattern,shape,color","174","1",""
"null","366547","HierDytqmetf69","sub18","06","04","feedback","test","null","","","na","","174","",""
"1564.6000000014901","368114","HierDytqmetf69","sub18","06","04","rl","test","65","img/o_t_stripes.png","1","65","pattern,shape,color","175","1",""
"null","369123","HierDytqmetf69","sub18","06","04","feedback","test","null","","","na","","175","",""
"1386.5","370511","HierDytqmetf69","sub18","06","04","rl","test","74","img/r_t_check.png","6","74","pattern,shape,color","176","1",""
"null","371520","HierDytqmetf69","sub18","06","04","feedback","test","null","","","na","","176","",""
"995.7000000029802","372517","HierDytqmetf69","sub18","06","04","rl","test","65","img/o_t_stripes.png","1","65","pattern,shape,color","177","1",""
"null","373521","HierDytqmetf69","sub18","06","04","feedback","test","null","","","na","","177","",""
"1252.6000000014901","374775","HierDytqmetf69","sub18","06","04","rl","test","75","img/o_s_check.png","7","75","pattern,shape,color","178","1",""
"null","375784","HierDytqmetf69","sub18","06","04","feedback","test","null","","","na","","178","",""
"943.8999999985099","376729","HierDytqmetf69","sub18","06","04","rl","test","68","img/o_s_stripes.png","3","68","pattern,shape,color","179","1",""
"null","377738","HierDytqmetf69","sub18","06","04","feedback","test","null","","","na","","179","",""
"1056.1000000014901","378796","HierDytqmetf69","sub18","06","04","rl","test","83","img/r_t_stripes.png","2","83","pattern,shape,color","180","1",""
"null","379801","HierDytqmetf69","sub18","06","04","feedback","test","null","","","na","","180","",""
"847.6999999955297","380650","HierDytqmetf69","sub18","06","04","rl","test","70","img/r_s_stripes.png","4","70","pattern,shape,color","181","1",""
"null","381661","HierDytqmetf69","sub18","06","04","feedback","test","null","","","na","","181","",""
"983.5","382645","HierDytqmetf69","sub18","06","04","rl","test","72","img/o_t_check.png","5","72","pattern,shape,color","182","1",""
"null","383651","HierDytqmetf69","sub18","06","04","feedback","test","null","","","na","","182","",""
"1259.7999999970198","384912","HierDytqmetf69","sub18","06","04","rl","test","68","img/o_s_stripes.png","3","68","pattern,shape,color","183","1",""
"null","385921","HierDytqmetf69","sub18","06","04","feedback","test","null","","","na","","183","",""
"845.5","386767","HierDytqmetf69","sub18","06","04","rl","test","76","img/r_s_check.png","8","76","pattern,shape,color","184","1",""
"null","387776","HierDytqmetf69","sub18","06","04","feedback","test","null","","","na","","184","",""
"555.5","388333","HierDytqmetf69","sub18","06","04","rl","test","76","img/r_s_check.png","8","76","pattern,shape,color","185","1",""
"null","389340","HierDytqmetf69","sub18","06","04","feedback","test","null","","","na","","185","",""
"848.1000000014901","390189","HierDytqmetf69","sub18","06","04","rl","test","83","img/r_t_stripes.png","2","83","pattern,shape,color","186","1",""
"null","391196","HierDytqmetf69","sub18","06","04","feedback","test","null","","","na","","186","",""
"1605.5","392803","HierDytqmetf69","sub18","06","04","rl","test","72","img/o_t_check.png","5","72","pattern,shape,color","187","1",""
"null","393812","HierDytqmetf69","sub18","06","04","feedback","test","null","","","na","","187","",""
"1382.3999999985099","395195","HierDytqmetf69","sub18","06","04","rl","test","76","img/r_s_stripes.png","4","70","pattern,shape,color","188","0",""
"null","396203","HierDytqmetf69","sub18","06","04","feedback","test","null","","","na","","188","",""
"1239.6999999955297","397444","HierDytqmetf69","sub18","06","04","rl","test","75","img/o_t_check.png","5","72","pattern,shape,color","189","0",""
"null","398452","HierDytqmetf69","sub18","06","04","feedback","test","null","","","na","","189","",""
"1232.5","399686","HierDytqmetf69","sub18","06","04","rl","test","74","img/r_t_check.png","6","74","pattern,shape,color","190","1",""
"null","400691","HierDytqmetf69","sub18","06","04","feedback","test","null","","","na","","190","",""
"965","401658","HierDytqmetf69","sub18","06","04","rl","test","68","img/o_s_stripes.png","3","68","pattern,shape,color","191","1",""
"null","402667","HierDytqmetf69","sub18","06","04","feedback","test","null","","","na","","191","",""
"1461.6000000014901","404130","HierDytqmetf69","sub18","06","04","rl","test","65","img/o_t_stripes.png","1","65","pattern,shape,color","192","1",""
"null","405139","HierDytqmetf69","sub18","06","04","feedback","test","null","","","na","","192","",""
"1611.2999999970198","406751","HierDytqmetf69","sub18","06","04","rl","test","75","img/o_s_check.png","7","75","pattern,shape,color","193","1",""
"null","407765","HierDytqmetf69","sub18","06","04","feedback","test","null","","","na","","193","",""
"1405.1000000014901","409172","HierDytqmetf69","sub18","06","04","rl","test","68","img/o_s_stripes.png","3","68","pattern,shape,color","194","1",""
"null","410178","HierDytqmetf69","sub18","06","04","feedback","test","null","","","na","","194","",""
"1039.6000000014901","411219","HierDytqmetf69","sub18","06","04","rl","test","65","img/o_t_stripes.png","1","65","pattern,shape,color","195","1",""
"null","412224","HierDytqmetf69","sub18","06","04","feedback","test","null","","","na","","195","",""
"1105.1000000014901","413331","HierDytqmetf69","sub18","06","04","rl","test","74","img/r_t_check.png","6","74","pattern,shape,color","196","1",""
"null","414338","HierDytqmetf69","sub18","06","04","feedback","test","null","","","na","","196","",""
"990.7000000029802","415330","HierDytqmetf69","sub18","06","04","rl","test","76","img/r_s_check.png","8","76","pattern,shape,color","197","1",""
"null","416337","HierDytqmetf69","sub18","06","04","feedback","test","null","","","na","","197","",""
"1165.3000000044703","417504","HierDytqmetf69","sub18","06","04","rl","test","70","img/r_s_stripes.png","4","70","pattern,shape,color","198","1",""
"null","418514","HierDytqmetf69","sub18","06","04","feedback","test","null","","","na","","198","",""
"1042.6999999955297","419558","HierDytqmetf69","sub18","06","04","rl","test","83","img/r_t_stripes.png","2","83","pattern,shape,color","199","1",""
"null","420565","HierDytqmetf69","sub18","06","04","feedback","test","null","","","na","","199","",""
"1407.1000000014901","421973","HierDytqmetf69","sub18","06","04","rl","test","75","img/o_s_check.png","7","75","pattern,shape,color","200","1",""
"null","422980","HierDytqmetf69","sub18","06","04","feedback","test","null","","","na","","200","",""
"2034.6000000014901","425016","HierDytqmetf69","sub18","06","04","rl","test","83","img/r_t_stripes.png","2","83","pattern,shape,color","201","1",""
"null","426026","HierDytqmetf69","sub18","06","04","feedback","test","null","","","na","","201","",""
"905.3999999985099","426932","HierDytqmetf69","sub18","06","04","rl","test","70","img/r_s_stripes.png","4","70","pattern,shape,color","202","1",""
"null","427940","HierDytqmetf69","sub18","06","04","feedback","test","null","","","na","","202","",""
"804","428746","HierDytqmetf69","sub18","06","04","rl","test","68","img/o_s_stripes.png","3","68","pattern,shape,color","203","1",""
"null","429755","HierDytqmetf69","sub18","06","04","feedback","test","null","","","na","","203","",""
"1064.1000000014901","430820","HierDytqmetf69","sub18","06","04","rl","test","74","img/o_t_check.png","5","72","pattern,shape,color","204","0",""
"null","431828","HierDytqmetf69","sub18","06","04","feedback","test","null","","","na","","204","",""
"1000","432829","HierDytqmetf69","sub18","06","04","rl","test","76","img/r_s_check.png","8","76","pattern,shape,color","205","1",""
"null","433836","HierDytqmetf69","sub18","06","04","feedback","test","null","","","na","","205","",""
"1067.2000000029802","434904","HierDytqmetf69","sub18","06","04","rl","test","65","img/o_t_stripes.png","1","65","pattern,shape,color","206","1",""
"null","435913","HierDytqmetf69","sub18","06","04","feedback","test","null","","","na","","206","",""
"871.2000000029802","436786","HierDytqmetf69","sub18","06","04","rl","test","70","img/r_s_stripes.png","4","70","pattern,shape,color","207","1",""
"null","437793","HierDytqmetf69","sub18","06","04","feedback","test","null","","","na","","207","",""
"971.8000000044703","438766","HierDytqmetf69","sub18","06","04","rl","test","75","img/o_s_check.png","7","75","pattern,shape,color","208","1",""
"null","439773","HierDytqmetf69","sub18","06","04","feedback","test","null","","","na","","208","",""
"671.2999999970198","440446","HierDytqmetf69","sub18","06","04","rl","test","75","img/o_s_check.png","7","75","pattern,shape,color","209","1",""
"null","441451","HierDytqmetf69","sub18","06","04","feedback","test","null","","","na","","209","",""
"1693.1999999955297","443146","HierDytqmetf69","sub18","06","04","rl","test","74","img/r_t_check.png","6","74","pattern,shape,color","210","1",""
"null","444154","HierDytqmetf69","sub18","06","04","feedback","test","null","","","na","","210","",""
"538.1999999955297","444694","HierDytqmetf69","sub18","06","04","rl","test","74","img/r_t_check.png","6","74","pattern,shape,color","211","1",""
"null","445697","HierDytqmetf69","sub18","06","04","feedback","test","null","","","na","","211","",""
"983.1000000014901","446681","HierDytqmetf69","sub18","06","04","rl","test","76","img/r_s_check.png","8","76","pattern,shape,color","212","1",""
"null","447692","HierDytqmetf69","sub18","06","04","feedback","test","null","","","na","","212","",""
"1548.3999999985099","449242","HierDytqmetf69","sub18","06","04","rl","test","83","img/o_s_stripes.png","3","68","pattern,shape,color","213","0",""
"null","450249","HierDytqmetf69","sub18","06","04","feedback","test","null","","","na","","213","",""
"1378.6999999955297","451629","HierDytqmetf69","sub18","06","04","rl","test","83","img/r_t_stripes.png","2","83","pattern,shape,color","214","1",""
"null","452635","HierDytqmetf69","sub18","06","04","feedback","test","null","","","na","","214","",""
"1774.8999999985099","454412","HierDytqmetf69","sub18","06","04","rl","test","72","img/o_t_check.png","5","72","pattern,shape,color","215","1",""
"null","455420","HierDytqmetf69","sub18","06","04","feedback","test","null","","","na","","215","",""
"1352.8999999985099","456774","HierDytqmetf69","sub18","06","04","rl","test","76","img/r_s_check.png","8","76","pattern,shape,color","216","1",""
"null","457779","HierDytqmetf69","sub18","06","04","feedback","test","null","","","na","","216","",""
"1726.8999999985099","459507","HierDytqmetf69","sub18","06","04","rl","test","74","img/o_t_check.png","5","72","pattern,shape,color","217","0",""
"null","460517","HierDytqmetf69","sub18","06","04","feedback","test","null","","","na","","217","",""
"1151.2000000029802","461669","HierDytqmetf69","sub18","06","04","rl","test","65","img/o_t_stripes.png","1","65","pattern,shape,color","218","1",""
"null","462678","HierDytqmetf69","sub18","06","04","feedback","test","null","","","na","","218","",""
"1840.7999999970198","464520","HierDytqmetf69","sub18","06","04","rl","test","68","img/o_s_stripes.png","3","68","pattern,shape,color","219","1",""
"null","465529","HierDytqmetf69","sub18","06","04","feedback","test","null","","","na","","219","",""
"1068.1999999955297","466598","HierDytqmetf69","sub18","06","04","rl","test","75","img/r_t_check.png","6","74","pattern,shape,color","220","0",""
"null","467603","HierDytqmetf69","sub18","06","04","feedback","test","null","","","na","","220","",""
"996.1000000014901","468601","HierDytqmetf69","sub18","06","04","rl","test","70","img/r_s_stripes.png","4","70","pattern,shape,color","221","1",""
"null","469610","HierDytqmetf69","sub18","06","04","feedback","test","null","","","na","","221","",""
"985.1000000014901","470596","HierDytqmetf69","sub18","06","04","rl","test","75","img/o_s_check.png","7","75","pattern,shape,color","222","1",""
"null","471601","HierDytqmetf69","sub18","06","04","feedback","test","null","","","na","","222","",""
"978.8999999985099","472581","HierDytqmetf69","sub18","06","04","rl","test","65","img/o_t_stripes.png","1","65","pattern,shape,color","223","1",""
"null","473588","HierDytqmetf69","sub18","06","04","feedback","test","null","","","na","","223","",""
"707.3999999985099","474296","HierDytqmetf69","sub18","06","04","rl","test","70","img/r_s_stripes.png","4","70","pattern,shape,color","224","1",""
"null","475307","HierDytqmetf69","sub18","06","04","feedback","test","null","","","na","","224","",""
"1591.2000000029802","476900","HierDytqmetf69","sub18","06","04","rl","test","83","img/r_t_stripes.png","2","83","pattern,shape,color","225","1",""
"null","477919","HierDytqmetf69","sub18","06","04","feedback","test","null","","","na","","225","",""
"1078.6000000014901","478999","HierDytqmetf69","sub18","06","04","rl","test","75","img/r_s_check.png","8","76","pattern,shape,color","226","0",""
"null","480001","HierDytqmetf69","sub18","06","04","feedback","test","null","","","na","","226","",""
"1538.5","481541","HierDytqmetf69","sub18","06","04","rl","test","83","img/r_t_stripes.png","2","83","pattern,shape,color","227","1",""
"null","482545","HierDytqmetf69","sub18","06","04","feedback","test","null","","","na","","227","",""
"1469","484016","HierDytqmetf69","sub18","06","04","rl","test","68","img/o_s_stripes.png","3","68","pattern,shape,color","228","1",""
"null","485026","HierDytqmetf69","sub18","06","04","feedback","test","null","","","na","","228","",""
"1717.6000000014901","486745","HierDytqmetf69","sub18","06","04","rl","test","72","img/o_t_check.png","5","72","pattern,shape,color","229","1",""
"null","487756","HierDytqmetf69","sub18","06","04","feedback","test","null","","","na","","229","",""
"1067","488825","HierDytqmetf69","sub18","06","04","rl","test","83","img/o_t_stripes.png","1","65","pattern,shape,color","230","0",""
"null","489833","HierDytqmetf69","sub18","06","04","feedback","test","null","","","na","","230","",""
"1007.3999999985099","490842","HierDytqmetf69","sub18","06","04","rl","test","65","img/o_t_stripes.png","1","65","pattern,shape,color","231","1",""
"null","491851","HierDytqmetf69","sub18","06","04","feedback","test","null","","","na","","231","",""
"2253.10000000149","494106","HierDytqmetf69","sub18","06","04","rl","test","75","img/o_s_check.png","7","75","pattern,shape,color","232","1",""
"null","495116","HierDytqmetf69","sub18","06","04","feedback","test","null","","","na","","232","",""
"1101.0999999940395","496219","HierDytqmetf69","sub18","06","04","rl","test","72","img/o_t_check.png","5","72","pattern,shape,color","233","1",""
"null","497228","HierDytqmetf69","sub18","06","04","feedback","test","null","","","na","","233","",""
"1001.1999999955297","498231","HierDytqmetf69","sub18","06","04","rl","test","74","img/r_t_check.png","6","74","pattern,shape,color","234","1",""
"null","499234","HierDytqmetf69","sub18","06","04","feedback","test","null","","","na","","234","",""
"1345.6999999955297","500581","HierDytqmetf69","sub18","06","04","rl","test","83","img/r_t_stripes.png","2","83","pattern,shape,color","235","1",""
"null","501589","HierDytqmetf69","sub18","06","04","feedback","test","null","","","na","","235","",""
"null","504098","HierDytqmetf69","sub18","06","04","rl","test","null","img/o_s_check.png","7","75","pattern,shape,color","236","0",""
"null","505108","HierDytqmetf69","sub18","06","04","feedback","test","null","","","na","","236","",""
"1961.8000000044703","507071","HierDytqmetf69","sub18","06","04","rl","test","74","img/r_t_check.png","6","74","pattern,shape,color","237","1",""
"null","508074","HierDytqmetf69","sub18","06","04","feedback","test","null","","","na","","237","",""
"544.5","508620","HierDytqmetf69","sub18","06","04","rl","test","72","img/o_t_check.png","5","72","pattern,shape,color","238","1",""
"null","509628","HierDytqmetf69","sub18","06","04","feedback","test","null","","","na","","238","",""
"794.3000000044703","510423","HierDytqmetf69","sub18","06","04","rl","test","70","img/r_s_stripes.png","4","70","pattern,shape,color","239","1",""
"null","511428","HierDytqmetf69","sub18","06","04","feedback","test","null","","","na","","239","",""
"768.3999999985099","512198","HierDytqmetf69","sub18","06","04","rl","test","68","img/o_s_stripes.png","3","68","pattern,shape,color","240","1",""
"null","513205","HierDytqmetf69","sub18","06","04","feedback","test","null","","","na","","240","",""
"1577.2999999970198","514783","HierDytqmetf69","sub18","06","04","rl","test","74","img/r_s_check.png","8","76","pattern,shape,color","241","0",""
"null","515786","HierDytqmetf69","sub18","06","04","feedback","test","null","","","na","","241","",""
"1076.2999999970198","516864","HierDytqmetf69","sub18","06","04","rl","test","75","img/o_s_check.png","7","75","pattern,shape,color","242","1",""
"null","517878","HierDytqmetf69","sub18","06","04","feedback","test","null","","","na","","242","",""
"1158","519037","HierDytqmetf69","sub18","06","04","rl","test","68","img/o_s_stripes.png","3","68","pattern,shape,color","243","1",""
"null","520043","HierDytqmetf69","sub18","06","04","feedback","test","null","","","na","","243","",""
"2477.2999999970198","522522","HierDytqmetf69","sub18","06","04","rl","test","72","img/r_t_check.png","6","74","pattern,shape,color","244","0",""
"null","523530","HierDytqmetf69","sub18","06","04","feedback","test","null","","","na","","244","",""
"1128.1000000014901","524659","HierDytqmetf69","sub18","06","04","rl","test","70","img/r_s_stripes.png","4","70","pattern,shape,color","245","1",""
"null","525666","HierDytqmetf69","sub18","06","04","feedback","test","null","","","na","","245","",""
"1164.3999999985099","526832","HierDytqmetf69","sub18","06","04","rl","test","65","img/o_t_stripes.png","1","65","pattern,shape,color","246","1",""
"null","527842","HierDytqmetf69","sub18","06","04","feedback","test","null","","","na","","246","",""
"1546.3999999985099","529390","HierDytqmetf69","sub18","06","04","rl","test","72","img/o_t_check.png","5","72","pattern,shape,color","247","1",""
"null","530397","HierDytqmetf69","sub18","06","04","feedback","test","null","","","na","","247","",""
"822.1000000014901","531220","HierDytqmetf69","sub18","06","04","rl","test","83","img/r_t_stripes.png","2","83","pattern,shape,color","248","1",""
"null","532226","HierDytqmetf69","sub18","06","04","feedback","test","null","","","na","","248","",""
"4077.7999999970198","536308","HierDytqmetf69","sub18","06","04","","","","","","","","","","{""Q0"":""7""}"
"17235.39999999851","553547","HierDytqmetf69","sub18","06","04","","","","","","","","","","{""Q0"":""I pairerd the triangles with checkers to the left hand""}"
"3533.8000000044703","557082","HierDytqmetf69","sub18","06","04","","","","","","","","","",""
