"rt","time_elapsed","subject","subID","group","day","trialType","phase","key_press","stim","stimNum","corrresp","hierarchy","trialNum","corr","responses"
"4779.599999964237","4782","HierDypbgdtfqh","sub17","05","07","","","","","","","","","",""
"","13217","HierDypbgdtfqh","sub17","05","07","fullscreen","","","","","","","","",""
"5356.199999988079","18574","HierDypbgdtfqh","sub17","05","07","","prac","","","","","","","",""
"712.6999999880791","19290","HierDypbgdtfqh","sub17","05","07","","","32","","","","","","",""
"722.5999999642372","20013","HierDypbgdtfqh","sub17","05","07","","prac","","","","","","","",""
"1203.9000000357628","21219","HierDypbgdtfqh","sub17","05","07","rl","test","72","img/b_c_dots.png","5","72","pattern,shape,color","1","1",""
"null","22227","HierDypbgdtfqh","sub17","05","07","feedback","test","null","","","na","","1","",""
"806","23034","HierDypbgdtfqh","sub17","05","07","rl","test","65","img/b_c_diag.png","1","65","pattern,shape,color","2","1",""
"null","24043","HierDypbgdtfqh","sub17","05","07","feedback","test","null","","","na","","2","",""
"864.2000000476837","24909","HierDypbgdtfqh","sub17","05","07","rl","test","70","img/p_d_diag.png","4","70","pattern,shape,color","3","1",""
"null","25919","HierDypbgdtfqh","sub17","05","07","feedback","test","null","","","na","","3","",""
"964.3999999761581","26885","HierDypbgdtfqh","sub17","05","07","rl","test","74","img/p_c_dots.png","6","74","pattern,shape,color","4","1",""
"null","27895","HierDypbgdtfqh","sub17","05","07","feedback","test","null","","","na","","4","",""
"866","28763","HierDypbgdtfqh","sub17","05","07","rl","test","68","img/b_d_diag.png","3","68","pattern,shape,color","5","1",""
"null","29767","HierDypbgdtfqh","sub17","05","07","feedback","test","null","","","na","","5","",""
"837.6000000238419","30606","HierDypbgdtfqh","sub17","05","07","rl","test","83","img/p_c_diag.png","2","83","pattern,shape,color","6","1",""
"null","31615","HierDypbgdtfqh","sub17","05","07","feedback","test","null","","","na","","6","",""
"976.3999999761581","32593","HierDypbgdtfqh","sub17","05","07","rl","test","75","img/b_d_dots.png","7","75","pattern,shape,color","7","1",""
"null","33599","HierDypbgdtfqh","sub17","05","07","feedback","test","null","","","na","","7","",""
"751","34352","HierDypbgdtfqh","sub17","05","07","rl","test","68","img/b_d_diag.png","3","68","pattern,shape,color","8","1",""
"null","35359","HierDypbgdtfqh","sub17","05","07","feedback","test","null","","","na","","8","",""
"930.1999999880791","36290","HierDypbgdtfqh","sub17","05","07","rl","test","76","img/p_d_dots.png","8","76","pattern,shape,color","9","1",""
"null","37294","HierDypbgdtfqh","sub17","05","07","feedback","test","null","","","na","","9","",""
"747.3000000119209","38043","HierDypbgdtfqh","sub17","05","07","rl","test","76","img/p_d_dots.png","8","76","pattern,shape,color","10","1",""
"null","39046","HierDypbgdtfqh","sub17","05","07","feedback","test","null","","","na","","10","",""
"981.8000000119209","40029","HierDypbgdtfqh","sub17","05","07","rl","test","83","img/p_c_diag.png","2","83","pattern,shape,color","11","1",""
"null","41042","HierDypbgdtfqh","sub17","05","07","feedback","test","null","","","na","","11","",""
"656.5","41700","HierDypbgdtfqh","sub17","05","07","rl","test","72","img/b_c_dots.png","5","72","pattern,shape,color","12","1",""
"null","42703","HierDypbgdtfqh","sub17","05","07","feedback","test","null","","","na","","12","",""
"673.6999999880791","43378","HierDypbgdtfqh","sub17","05","07","rl","test","75","img/b_d_dots.png","7","75","pattern,shape,color","13","1",""
"null","44384","HierDypbgdtfqh","sub17","05","07","feedback","test","null","","","na","","13","",""
"666.4000000357628","45052","HierDypbgdtfqh","sub17","05","07","rl","test","74","img/p_c_dots.png","6","74","pattern,shape,color","14","1",""
"null","46057","HierDypbgdtfqh","sub17","05","07","feedback","test","null","","","na","","14","",""
"685.8000000119209","46744","HierDypbgdtfqh","sub17","05","07","rl","test","83","img/b_c_diag.png","1","65","pattern,shape,color","15","0",""
"null","47752","HierDypbgdtfqh","sub17","05","07","feedback","test","null","","","na","","15","",""
"681.6000000238419","48436","HierDypbgdtfqh","sub17","05","07","rl","test","70","img/p_d_diag.png","4","70","pattern,shape,color","16","1",""
"null","49439","HierDypbgdtfqh","sub17","05","07","feedback","test","null","","","na","","16","",""
"786.2999999523163","50227","HierDypbgdtfqh","sub17","05","07","rl","test","76","img/p_d_dots.png","8","76","pattern,shape,color","17","1",""
"null","51234","HierDypbgdtfqh","sub17","05","07","feedback","test","null","","","na","","17","",""
"615.8999999761581","51852","HierDypbgdtfqh","sub17","05","07","rl","test","70","img/p_d_diag.png","4","70","pattern,shape,color","18","1",""
"null","52855","HierDypbgdtfqh","sub17","05","07","feedback","test","null","","","na","","18","",""
"1042.3999999761581","53899","HierDypbgdtfqh","sub17","05","07","rl","test","83","img/p_c_diag.png","2","83","pattern,shape,color","19","1",""
"null","54903","HierDypbgdtfqh","sub17","05","07","feedback","test","null","","","na","","19","",""
"627.1999999880791","55532","HierDypbgdtfqh","sub17","05","07","rl","test","65","img/b_c_diag.png","1","65","pattern,shape,color","20","1",""
"null","56535","HierDypbgdtfqh","sub17","05","07","feedback","test","null","","","na","","20","",""
"620.6000000238419","57157","HierDypbgdtfqh","sub17","05","07","rl","test","68","img/b_d_diag.png","3","68","pattern,shape,color","21","1",""
"null","58167","HierDypbgdtfqh","sub17","05","07","feedback","test","null","","","na","","21","",""
"906","59075","HierDypbgdtfqh","sub17","05","07","rl","test","65","img/b_c_diag.png","1","65","pattern,shape,color","22","1",""
"null","60079","HierDypbgdtfqh","sub17","05","07","feedback","test","null","","","na","","22","",""
"911.8000000119209","60993","HierDypbgdtfqh","sub17","05","07","rl","test","72","img/b_c_dots.png","5","72","pattern,shape,color","23","1",""
"null","61999","HierDypbgdtfqh","sub17","05","07","feedback","test","null","","","na","","23","",""
"767.8999999761581","62768","HierDypbgdtfqh","sub17","05","07","rl","test","75","img/b_d_diag.png","3","68","pattern,shape,color","24","0",""
"null","63776","HierDypbgdtfqh","sub17","05","07","feedback","test","null","","","na","","24","",""
"929.5","64707","HierDypbgdtfqh","sub17","05","07","rl","test","75","img/b_d_dots.png","7","75","pattern,shape,color","25","1",""
"null","65711","HierDypbgdtfqh","sub17","05","07","feedback","test","null","","","na","","25","",""
"1095","66807","HierDypbgdtfqh","sub17","05","07","rl","test","75","img/b_d_dots.png","7","75","pattern,shape,color","26","1",""
"null","67815","HierDypbgdtfqh","sub17","05","07","feedback","test","null","","","na","","26","",""
"782.4000000357628","68600","HierDypbgdtfqh","sub17","05","07","rl","test","75","img/b_c_dots.png","5","72","pattern,shape,color","27","0",""
"null","69601","HierDypbgdtfqh","sub17","05","07","feedback","test","null","","","na","","27","",""
"1195.5","70798","HierDypbgdtfqh","sub17","05","07","rl","test","74","img/p_c_dots.png","6","74","pattern,shape,color","28","1",""
"null","71807","HierDypbgdtfqh","sub17","05","07","feedback","test","null","","","na","","28","",""
"586","72394","HierDypbgdtfqh","sub17","05","07","rl","test","74","img/p_c_dots.png","6","74","pattern,shape,color","29","1",""
"null","73401","HierDypbgdtfqh","sub17","05","07","feedback","test","null","","","na","","29","",""
"1210.699999988079","74613","HierDypbgdtfqh","sub17","05","07","rl","test","68","img/p_d_diag.png","4","70","pattern,shape,color","30","0",""
"null","75624","HierDypbgdtfqh","sub17","05","07","feedback","test","null","","","na","","30","",""
"646.3000000119209","76271","HierDypbgdtfqh","sub17","05","07","rl","test","70","img/p_d_dots.png","8","76","pattern,shape,color","31","0",""
"null","77280","HierDypbgdtfqh","sub17","05","07","feedback","test","null","","","na","","31","",""
"1120","78401","HierDypbgdtfqh","sub17","05","07","rl","test","70","img/p_d_diag.png","4","70","pattern,shape,color","32","1",""
"null","79410","HierDypbgdtfqh","sub17","05","07","feedback","test","null","","","na","","32","",""
"1174.300000011921","80586","HierDypbgdtfqh","sub17","05","07","rl","test","83","img/p_c_diag.png","2","83","pattern,shape,color","33","1",""
"null","81592","HierDypbgdtfqh","sub17","05","07","feedback","test","null","","","na","","33","",""
"869.8000000119209","82463","HierDypbgdtfqh","sub17","05","07","rl","test","74","img/p_c_dots.png","6","74","pattern,shape,color","34","1",""
"null","83471","HierDypbgdtfqh","sub17","05","07","feedback","test","null","","","na","","34","",""
"862.9000000357628","84336","HierDypbgdtfqh","sub17","05","07","rl","test","75","img/b_d_dots.png","7","75","pattern,shape,color","35","1",""
"null","85344","HierDypbgdtfqh","sub17","05","07","feedback","test","null","","","na","","35","",""
"846.3999999761581","86192","HierDypbgdtfqh","sub17","05","07","rl","test","83","img/p_c_diag.png","2","83","pattern,shape,color","36","1",""
"null","87199","HierDypbgdtfqh","sub17","05","07","feedback","test","null","","","na","","36","",""
"1406.4000000357628","88607","HierDypbgdtfqh","sub17","05","07","rl","test","65","img/b_c_diag.png","1","65","pattern,shape,color","37","1",""
"null","89615","HierDypbgdtfqh","sub17","05","07","feedback","test","null","","","na","","37","",""
"891.5999999642372","90508","HierDypbgdtfqh","sub17","05","07","rl","test","72","img/b_c_dots.png","5","72","pattern,shape,color","38","1",""
"null","91512","HierDypbgdtfqh","sub17","05","07","feedback","test","null","","","na","","38","",""
"2130.399999976158","93643","HierDypbgdtfqh","sub17","05","07","rl","test","68","img/b_d_diag.png","3","68","pattern,shape,color","39","1",""
"null","94647","HierDypbgdtfqh","sub17","05","07","feedback","test","null","","","na","","39","",""
"843.5999999642372","95492","HierDypbgdtfqh","sub17","05","07","rl","test","70","img/p_d_diag.png","4","70","pattern,shape,color","40","1",""
"null","96498","HierDypbgdtfqh","sub17","05","07","feedback","test","null","","","na","","40","",""
"642.7999999523163","97142","HierDypbgdtfqh","sub17","05","07","rl","test","76","img/p_d_dots.png","8","76","pattern,shape,color","41","1",""
"null","98151","HierDypbgdtfqh","sub17","05","07","feedback","test","null","","","na","","41","",""
"561.7999999523163","98714","HierDypbgdtfqh","sub17","05","07","rl","test","75","img/b_d_dots.png","7","75","pattern,shape,color","42","1",""
"null","99721","HierDypbgdtfqh","sub17","05","07","feedback","test","null","","","na","","42","",""
"828.9000000357628","100552","HierDypbgdtfqh","sub17","05","07","rl","test","65","img/b_c_diag.png","1","65","pattern,shape,color","43","1",""
"null","101559","HierDypbgdtfqh","sub17","05","07","feedback","test","null","","","na","","43","",""
"658.2999999523163","102218","HierDypbgdtfqh","sub17","05","07","rl","test","70","img/p_d_diag.png","4","70","pattern,shape,color","44","1",""
"null","103225","HierDypbgdtfqh","sub17","05","07","feedback","test","null","","","na","","44","",""
"1256.5","104483","HierDypbgdtfqh","sub17","05","07","rl","test","83","img/p_c_diag.png","2","83","pattern,shape,color","45","1",""
"null","105487","HierDypbgdtfqh","sub17","05","07","feedback","test","null","","","na","","45","",""
"708.5","106197","HierDypbgdtfqh","sub17","05","07","rl","test","68","img/b_d_diag.png","3","68","pattern,shape,color","46","1",""
"null","107202","HierDypbgdtfqh","sub17","05","07","feedback","test","null","","","na","","46","",""
"916.1000000238419","108119","HierDypbgdtfqh","sub17","05","07","rl","test","76","img/p_d_dots.png","8","76","pattern,shape,color","47","1",""
"null","109128","HierDypbgdtfqh","sub17","05","07","feedback","test","null","","","na","","47","",""
"639.6999999880791","109769","HierDypbgdtfqh","sub17","05","07","rl","test","72","img/b_c_dots.png","5","72","pattern,shape,color","48","1",""
"null","110777","HierDypbgdtfqh","sub17","05","07","feedback","test","null","","","na","","48","",""
"836","111615","HierDypbgdtfqh","sub17","05","07","rl","test","74","img/p_c_dots.png","6","74","pattern,shape,color","49","1",""
"null","112624","HierDypbgdtfqh","sub17","05","07","feedback","test","null","","","na","","49","",""
"715.7999999523163","113342","HierDypbgdtfqh","sub17","05","07","rl","test","76","img/p_d_dots.png","8","76","pattern,shape,color","50","1",""
"null","114352","HierDypbgdtfqh","sub17","05","07","feedback","test","null","","","na","","50","",""
"627.6999999880791","114981","HierDypbgdtfqh","sub17","05","07","rl","test","65","img/b_c_diag.png","1","65","pattern,shape,color","51","1",""
"null","115992","HierDypbgdtfqh","sub17","05","07","feedback","test","null","","","na","","51","",""
"679.8000000119209","116673","HierDypbgdtfqh","sub17","05","07","rl","test","72","img/b_c_dots.png","5","72","pattern,shape,color","52","1",""
"null","117679","HierDypbgdtfqh","sub17","05","07","feedback","test","null","","","na","","52","",""
"546.1999999880791","118227","HierDypbgdtfqh","sub17","05","07","rl","test","75","img/b_d_dots.png","7","75","pattern,shape,color","53","1",""
"null","119231","HierDypbgdtfqh","sub17","05","07","feedback","test","null","","","na","","53","",""
"653.3999999761581","119886","HierDypbgdtfqh","sub17","05","07","rl","test","74","img/p_c_dots.png","6","74","pattern,shape,color","54","1",""
"null","120896","HierDypbgdtfqh","sub17","05","07","feedback","test","null","","","na","","54","",""
"508.69999998807907","121406","HierDypbgdtfqh","sub17","05","07","rl","test","75","img/b_d_dots.png","7","75","pattern,shape,color","55","1",""
"null","122416","HierDypbgdtfqh","sub17","05","07","feedback","test","null","","","na","","55","",""
"1000.6999999880791","123418","HierDypbgdtfqh","sub17","05","07","rl","test","72","img/b_c_dots.png","5","72","pattern,shape,color","56","1",""
"null","124424","HierDypbgdtfqh","sub17","05","07","feedback","test","null","","","na","","56","",""
"832.4000000357628","125258","HierDypbgdtfqh","sub17","05","07","rl","test","83","img/p_c_diag.png","2","83","pattern,shape,color","57","1",""
"null","126267","HierDypbgdtfqh","sub17","05","07","feedback","test","null","","","na","","57","",""
"587","126855","HierDypbgdtfqh","sub17","05","07","rl","test","83","img/p_c_diag.png","2","83","pattern,shape,color","58","1",""
"null","127866","HierDypbgdtfqh","sub17","05","07","feedback","test","null","","","na","","58","",""
"687.2000000476837","128554","HierDypbgdtfqh","sub17","05","07","rl","test","70","img/p_d_diag.png","4","70","pattern,shape,color","59","1",""
"null","129560","HierDypbgdtfqh","sub17","05","07","feedback","test","null","","","na","","59","",""
"779.8000000119209","130342","HierDypbgdtfqh","sub17","05","07","rl","test","68","img/b_d_diag.png","3","68","pattern,shape,color","60","1",""
"null","131352","HierDypbgdtfqh","sub17","05","07","feedback","test","null","","","na","","60","",""
"782.1999999880791","132136","HierDypbgdtfqh","sub17","05","07","rl","test","75","img/p_d_dots.png","8","76","pattern,shape,color","61","0",""
"null","133145","HierDypbgdtfqh","sub17","05","07","feedback","test","null","","","na","","61","",""
"2072.899999976158","135219","HierDypbgdtfqh","sub17","05","07","rl","test","74","img/p_c_dots.png","6","74","pattern,shape,color","62","1",""
"null","136223","HierDypbgdtfqh","sub17","05","07","feedback","test","null","","","na","","62","",""
"842.4000000357628","137067","HierDypbgdtfqh","sub17","05","07","rl","test","68","img/b_d_diag.png","3","68","pattern,shape,color","63","1",""
"null","138072","HierDypbgdtfqh","sub17","05","07","feedback","test","null","","","na","","63","",""
"766.7000000476837","138840","HierDypbgdtfqh","sub17","05","07","rl","test","65","img/b_c_diag.png","1","65","pattern,shape,color","64","1",""
"null","139848","HierDypbgdtfqh","sub17","05","07","feedback","test","null","","","na","","64","",""
"627.4000000357628","140476","HierDypbgdtfqh","sub17","05","07","rl","test","83","img/p_c_diag.png","2","83","pattern,shape,color","65","1",""
"null","141480","HierDypbgdtfqh","sub17","05","07","feedback","test","null","","","na","","65","",""
"794.1000000238419","142276","HierDypbgdtfqh","sub17","05","07","rl","test","72","img/b_c_dots.png","5","72","pattern,shape,color","66","1",""
"null","143279","HierDypbgdtfqh","sub17","05","07","feedback","test","null","","","na","","66","",""
"661.2000000476837","143941","HierDypbgdtfqh","sub17","05","07","rl","test","74","img/p_c_dots.png","6","74","pattern,shape,color","67","1",""
"null","144952","HierDypbgdtfqh","sub17","05","07","feedback","test","null","","","na","","67","",""
"880.3999999761581","145834","HierDypbgdtfqh","sub17","05","07","rl","test","70","img/p_d_diag.png","4","70","pattern,shape,color","68","1",""
"null","146839","HierDypbgdtfqh","sub17","05","07","feedback","test","null","","","na","","68","",""
"1115.300000011921","147955","HierDypbgdtfqh","sub17","05","07","rl","test","75","img/b_d_dots.png","7","75","pattern,shape,color","69","1",""
"null","148959","HierDypbgdtfqh","sub17","05","07","feedback","test","null","","","na","","69","",""
"831.3000000119209","149792","HierDypbgdtfqh","sub17","05","07","rl","test","65","img/b_c_diag.png","1","65","pattern,shape,color","70","1",""
"null","150801","HierDypbgdtfqh","sub17","05","07","feedback","test","null","","","na","","70","",""
"871.7999999523163","151674","HierDypbgdtfqh","sub17","05","07","rl","test","75","img/b_d_dots.png","7","75","pattern,shape,color","71","1",""
"null","152680","HierDypbgdtfqh","sub17","05","07","feedback","test","null","","","na","","71","",""
"959.6999999880791","153641","HierDypbgdtfqh","sub17","05","07","rl","test","68","img/b_d_diag.png","3","68","pattern,shape,color","72","1",""
"null","154648","HierDypbgdtfqh","sub17","05","07","feedback","test","null","","","na","","72","",""
"732.7000000476837","155381","HierDypbgdtfqh","sub17","05","07","rl","test","76","img/p_d_dots.png","8","76","pattern,shape,color","73","1",""
"null","156386","HierDypbgdtfqh","sub17","05","07","feedback","test","null","","","na","","73","",""
"1110.5999999642372","157498","HierDypbgdtfqh","sub17","05","07","rl","test","76","img/p_d_dots.png","8","76","pattern,shape,color","74","1",""
"null","158503","HierDypbgdtfqh","sub17","05","07","feedback","test","null","","","na","","74","",""
"734.1999999880791","159238","HierDypbgdtfqh","sub17","05","07","rl","test","70","img/p_d_diag.png","4","70","pattern,shape,color","75","1",""
"null","160248","HierDypbgdtfqh","sub17","05","07","feedback","test","null","","","na","","75","",""
"974.7999999523163","161224","HierDypbgdtfqh","sub17","05","07","rl","test","72","img/b_c_dots.png","5","72","pattern,shape,color","76","1",""
"null","162234","HierDypbgdtfqh","sub17","05","07","feedback","test","null","","","na","","76","",""
"935.5999999642372","163171","HierDypbgdtfqh","sub17","05","07","rl","test","83","img/p_c_diag.png","2","83","pattern,shape,color","77","1",""
"null","164175","HierDypbgdtfqh","sub17","05","07","feedback","test","null","","","na","","77","",""
"872.1999999880791","165049","HierDypbgdtfqh","sub17","05","07","rl","test","74","img/p_c_dots.png","6","74","pattern,shape,color","78","1",""
"null","166056","HierDypbgdtfqh","sub17","05","07","feedback","test","null","","","na","","78","",""
"1346.300000011921","167404","HierDypbgdtfqh","sub17","05","07","rl","test","83","img/p_c_diag.png","2","83","pattern,shape,color","79","1",""
"null","168410","HierDypbgdtfqh","sub17","05","07","feedback","test","null","","","na","","79","",""
"1697.699999988079","170109","HierDypbgdtfqh","sub17","05","07","rl","test","68","img/b_d_diag.png","3","68","pattern,shape,color","80","1",""
"null","171113","HierDypbgdtfqh","sub17","05","07","feedback","test","null","","","na","","80","",""
"1031","172145","HierDypbgdtfqh","sub17","05","07","rl","test","74","img/p_c_dots.png","6","74","pattern,shape,color","81","1",""
"null","173152","HierDypbgdtfqh","sub17","05","07","feedback","test","null","","","na","","81","",""
"1428.5","174582","HierDypbgdtfqh","sub17","05","07","rl","test","65","img/b_c_diag.png","1","65","pattern,shape,color","82","1",""
"null","175592","HierDypbgdtfqh","sub17","05","07","feedback","test","null","","","na","","82","",""
"1072.1000000238419","176665","HierDypbgdtfqh","sub17","05","07","rl","test","65","img/b_c_diag.png","1","65","pattern,shape,color","83","1",""
"null","177671","HierDypbgdtfqh","sub17","05","07","feedback","test","null","","","na","","83","",""
"808.0999999642372","178480","HierDypbgdtfqh","sub17","05","07","rl","test","76","img/b_d_dots.png","7","75","pattern,shape,color","84","0",""
"null","179489","HierDypbgdtfqh","sub17","05","07","feedback","test","null","","","na","","84","",""
"942.9000000357628","180433","HierDypbgdtfqh","sub17","05","07","rl","test","70","img/b_d_diag.png","3","68","pattern,shape,color","85","0",""
"null","181439","HierDypbgdtfqh","sub17","05","07","feedback","test","null","","","na","","85","",""
"683.2999999523163","182124","HierDypbgdtfqh","sub17","05","07","rl","test","65","img/b_c_diag.png","1","65","pattern,shape,color","86","1",""
"null","183128","HierDypbgdtfqh","sub17","05","07","feedback","test","null","","","na","","86","",""
"658.8000000119209","183788","HierDypbgdtfqh","sub17","05","07","rl","test","76","img/p_d_dots.png","8","76","pattern,shape,color","87","1",""
"null","184794","HierDypbgdtfqh","sub17","05","07","feedback","test","null","","","na","","87","",""
"785.5","185581","HierDypbgdtfqh","sub17","05","07","rl","test","76","img/p_d_diag.png","4","70","pattern,shape,color","88","0",""
"null","186584","HierDypbgdtfqh","sub17","05","07","feedback","test","null","","","na","","88","",""
"1299","187885","HierDypbgdtfqh","sub17","05","07","rl","test","68","img/b_d_diag.png","3","68","pattern,shape,color","89","1",""
"null","188890","HierDypbgdtfqh","sub17","05","07","feedback","test","null","","","na","","89","",""
"1475.800000011921","190367","HierDypbgdtfqh","sub17","05","07","rl","test","72","img/b_c_dots.png","5","72","pattern,shape,color","90","1",""
"null","191376","HierDypbgdtfqh","sub17","05","07","feedback","test","null","","","na","","90","",""
"1414.199999988079","192792","HierDypbgdtfqh","sub17","05","07","rl","test","75","img/p_d_dots.png","8","76","pattern,shape,color","91","0",""
"null","193800","HierDypbgdtfqh","sub17","05","07","feedback","test","null","","","na","","91","",""
"950.1999999880791","194752","HierDypbgdtfqh","sub17","05","07","rl","test","75","img/b_d_dots.png","7","75","pattern,shape,color","92","1",""
"null","195764","HierDypbgdtfqh","sub17","05","07","feedback","test","null","","","na","","92","",""
"1652.1000000238419","197417","HierDypbgdtfqh","sub17","05","07","rl","test","83","img/p_c_diag.png","2","83","pattern,shape,color","93","1",""
"null","198423","HierDypbgdtfqh","sub17","05","07","feedback","test","null","","","na","","93","",""
"1129","199554","HierDypbgdtfqh","sub17","05","07","rl","test","70","img/p_d_diag.png","4","70","pattern,shape,color","94","1",""
"null","200560","HierDypbgdtfqh","sub17","05","07","feedback","test","null","","","na","","94","",""
"1287","201848","HierDypbgdtfqh","sub17","05","07","rl","test","72","img/b_c_dots.png","5","72","pattern,shape,color","95","1",""
"null","202855","HierDypbgdtfqh","sub17","05","07","feedback","test","null","","","na","","95","",""
"1804.5999999642372","204661","HierDypbgdtfqh","sub17","05","07","rl","test","74","img/p_c_dots.png","6","74","pattern,shape,color","96","1",""
"null","205663","HierDypbgdtfqh","sub17","05","07","feedback","test","null","","","na","","96","",""
"656.8999999761581","206321","HierDypbgdtfqh","sub17","05","07","rl","test","72","img/b_c_dots.png","5","72","pattern,shape,color","97","1",""
"null","207327","HierDypbgdtfqh","sub17","05","07","feedback","test","null","","","na","","97","",""
"1293.699999988079","208622","HierDypbgdtfqh","sub17","05","07","rl","test","75","img/b_d_dots.png","7","75","pattern,shape,color","98","1",""
"null","209632","HierDypbgdtfqh","sub17","05","07","feedback","test","null","","","na","","98","",""
"927.6999999880791","210561","HierDypbgdtfqh","sub17","05","07","rl","test","68","img/b_d_diag.png","3","68","pattern,shape,color","99","1",""
"null","211569","HierDypbgdtfqh","sub17","05","07","feedback","test","null","","","na","","99","",""
"2375.800000011921","213946","HierDypbgdtfqh","sub17","05","07","rl","test","83","img/p_c_diag.png","2","83","pattern,shape,color","100","1",""
"null","214951","HierDypbgdtfqh","sub17","05","07","feedback","test","null","","","na","","100","",""
"956.3999999761581","215909","HierDypbgdtfqh","sub17","05","07","rl","test","65","img/b_c_diag.png","1","65","pattern,shape,color","101","1",""
"null","216912","HierDypbgdtfqh","sub17","05","07","feedback","test","null","","","na","","101","",""
"908","217822","HierDypbgdtfqh","sub17","05","07","rl","test","76","img/p_d_dots.png","8","76","pattern,shape,color","102","1",""
"null","218832","HierDypbgdtfqh","sub17","05","07","feedback","test","null","","","na","","102","",""
"613.8999999761581","219447","HierDypbgdtfqh","sub17","05","07","rl","test","70","img/p_d_diag.png","4","70","pattern,shape,color","103","1",""
"null","220456","HierDypbgdtfqh","sub17","05","07","feedback","test","null","","","na","","103","",""
"522.3999999761581","220980","HierDypbgdtfqh","sub17","05","07","rl","test","70","img/p_d_diag.png","4","70","pattern,shape,color","104","1",""
"null","221984","HierDypbgdtfqh","sub17","05","07","feedback","test","null","","","na","","104","",""
"1241.800000011921","223228","HierDypbgdtfqh","sub17","05","07","rl","test","74","img/p_c_dots.png","6","74","pattern,shape,color","105","1",""
"null","224234","HierDypbgdtfqh","sub17","05","07","feedback","test","null","","","na","","105","",""
"1000.8999999761581","225237","HierDypbgdtfqh","sub17","05","07","rl","test","83","img/p_c_diag.png","2","83","pattern,shape,color","106","1",""
"null","226240","HierDypbgdtfqh","sub17","05","07","feedback","test","null","","","na","","106","",""
"1037.699999988079","227279","HierDypbgdtfqh","sub17","05","07","rl","test","76","img/p_d_dots.png","8","76","pattern,shape,color","107","1",""
"null","228289","HierDypbgdtfqh","sub17","05","07","feedback","test","null","","","na","","107","",""
"1091.6000000238419","229381","HierDypbgdtfqh","sub17","05","07","rl","test","65","img/b_c_diag.png","1","65","pattern,shape,color","108","1",""
"null","230387","HierDypbgdtfqh","sub17","05","07","feedback","test","null","","","na","","108","",""
"782.1000000238419","231171","HierDypbgdtfqh","sub17","05","07","rl","test","76","img/b_d_dots.png","7","75","pattern,shape,color","109","0",""
"null","232176","HierDypbgdtfqh","sub17","05","07","feedback","test","null","","","na","","109","",""
"1262.5","233440","HierDypbgdtfqh","sub17","05","07","rl","test","72","img/b_c_dots.png","5","72","pattern,shape,color","110","1",""
"null","234447","HierDypbgdtfqh","sub17","05","07","feedback","test","null","","","na","","110","",""
"1171.800000011921","235620","HierDypbgdtfqh","sub17","05","07","rl","test","68","img/b_d_diag.png","3","68","pattern,shape,color","111","1",""
"null","236623","HierDypbgdtfqh","sub17","05","07","feedback","test","null","","","na","","111","",""
"1059.800000011921","237684","HierDypbgdtfqh","sub17","05","07","rl","test","74","img/p_c_dots.png","6","74","pattern,shape,color","112","1",""
"null","238688","HierDypbgdtfqh","sub17","05","07","feedback","test","null","","","na","","112","",""
"790.3000000119209","239480","HierDypbgdtfqh","sub17","05","07","rl","test","68","img/b_d_diag.png","3","68","pattern,shape,color","113","1",""
"null","240489","HierDypbgdtfqh","sub17","05","07","feedback","test","null","","","na","","113","",""
"943","241433","HierDypbgdtfqh","sub17","05","07","rl","test","72","img/b_c_dots.png","5","72","pattern,shape,color","114","1",""
"null","242439","HierDypbgdtfqh","sub17","05","07","feedback","test","null","","","na","","114","",""
"892.2999999523163","243333","HierDypbgdtfqh","sub17","05","07","rl","test","74","img/p_c_dots.png","6","74","pattern,shape,color","115","1",""
"null","244340","HierDypbgdtfqh","sub17","05","07","feedback","test","null","","","na","","115","",""
"944.8999999761581","245286","HierDypbgdtfqh","sub17","05","07","rl","test","65","img/b_c_diag.png","1","65","pattern,shape,color","116","1",""
"null","246295","HierDypbgdtfqh","sub17","05","07","feedback","test","null","","","na","","116","",""
"1300.5999999642372","247598","HierDypbgdtfqh","sub17","05","07","rl","test","76","img/p_d_dots.png","8","76","pattern,shape,color","117","1",""
"null","248608","HierDypbgdtfqh","sub17","05","07","feedback","test","null","","","na","","117","",""
"650.1000000238419","249260","HierDypbgdtfqh","sub17","05","07","rl","test","70","img/p_d_diag.png","4","70","pattern,shape,color","118","1",""
"null","250264","HierDypbgdtfqh","sub17","05","07","feedback","test","null","","","na","","118","",""
"1458.1000000238419","251723","HierDypbgdtfqh","sub17","05","07","rl","test","70","img/p_d_diag.png","4","70","pattern,shape,color","119","1",""
"null","252728","HierDypbgdtfqh","sub17","05","07","feedback","test","null","","","na","","119","",""
"1683.300000011921","254412","HierDypbgdtfqh","sub17","05","07","rl","test","83","img/p_c_diag.png","2","83","pattern,shape,color","120","1",""
"null","255417","HierDypbgdtfqh","sub17","05","07","feedback","test","null","","","na","","120","",""
"2131.5","257550","HierDypbgdtfqh","sub17","05","07","rl","test","75","img/b_d_dots.png","7","75","pattern,shape,color","121","1",""
"null","258560","HierDypbgdtfqh","sub17","05","07","feedback","test","null","","","na","","121","",""
"784.8999999761581","259346","HierDypbgdtfqh","sub17","05","07","rl","test","83","img/p_c_diag.png","2","83","pattern,shape,color","122","1",""
"null","260352","HierDypbgdtfqh","sub17","05","07","feedback","test","null","","","na","","122","",""
"708.5","261062","HierDypbgdtfqh","sub17","05","07","rl","test","76","img/p_d_dots.png","8","76","pattern,shape,color","123","1",""
"null","262071","HierDypbgdtfqh","sub17","05","07","feedback","test","null","","","na","","123","",""
"869.8999999761581","262942","HierDypbgdtfqh","sub17","05","07","rl","test","70","img/b_d_diag.png","3","68","pattern,shape,color","124","0",""
"null","263951","HierDypbgdtfqh","sub17","05","07","feedback","test","null","","","na","","124","",""
"841.6000000238419","264794","HierDypbgdtfqh","sub17","05","07","rl","test","65","img/b_c_diag.png","1","65","pattern,shape,color","125","1",""
"null","265800","HierDypbgdtfqh","sub17","05","07","feedback","test","null","","","na","","125","",""
"717.6999999880791","266520","HierDypbgdtfqh","sub17","05","07","rl","test","75","img/b_d_dots.png","7","75","pattern,shape,color","126","1",""
"null","267531","HierDypbgdtfqh","sub17","05","07","feedback","test","null","","","na","","126","",""
"651.6999999880791","268184","HierDypbgdtfqh","sub17","05","07","rl","test","72","img/b_c_dots.png","5","72","pattern,shape,color","127","1",""
"null","269193","HierDypbgdtfqh","sub17","05","07","feedback","test","null","","","na","","127","",""
"446.89999997615814","269641","HierDypbgdtfqh","sub17","05","07","rl","test","72","img/b_c_dots.png","5","72","pattern,shape,color","128","1",""
"null","270647","HierDypbgdtfqh","sub17","05","07","feedback","test","null","","","na","","128","",""
"775","271424","HierDypbgdtfqh","sub17","05","07","rl","test","70","img/p_d_diag.png","4","70","pattern,shape,color","129","1",""
"null","272431","HierDypbgdtfqh","sub17","05","07","feedback","test","null","","","na","","129","",""
"1483","273916","HierDypbgdtfqh","sub17","05","07","rl","test","74","img/p_c_dots.png","6","74","pattern,shape,color","130","1",""
"null","274920","HierDypbgdtfqh","sub17","05","07","feedback","test","null","","","na","","130","",""
"1208.3999999761581","276129","HierDypbgdtfqh","sub17","05","07","rl","test","75","img/p_d_dots.png","8","76","pattern,shape,color","131","0",""
"null","277136","HierDypbgdtfqh","sub17","05","07","feedback","test","null","","","na","","131","",""
"1745.3999999761581","278883","HierDypbgdtfqh","sub17","05","07","rl","test","65","img/p_c_diag.png","2","83","pattern,shape,color","132","0",""
"null","279887","HierDypbgdtfqh","sub17","05","07","feedback","test","null","","","na","","132","",""
"1159.300000011921","281048","HierDypbgdtfqh","sub17","05","07","rl","test","74","img/p_c_dots.png","6","74","pattern,shape,color","133","1",""
"null","282056","HierDypbgdtfqh","sub17","05","07","feedback","test","null","","","na","","133","",""
"632.5","282691","HierDypbgdtfqh","sub17","05","07","rl","test","65","img/b_c_diag.png","1","65","pattern,shape,color","134","1",""
"null","283697","HierDypbgdtfqh","sub17","05","07","feedback","test","null","","","na","","134","",""
"1072.6000000238419","284771","HierDypbgdtfqh","sub17","05","07","rl","test","76","img/p_d_dots.png","8","76","pattern,shape,color","135","1",""
"null","285778","HierDypbgdtfqh","sub17","05","07","feedback","test","null","","","na","","135","",""
"1262.699999988079","287042","HierDypbgdtfqh","sub17","05","07","rl","test","68","img/b_d_diag.png","3","68","pattern,shape,color","136","1",""
"null","288048","HierDypbgdtfqh","sub17","05","07","feedback","test","null","","","na","","136","",""
"772.7000000476837","288822","HierDypbgdtfqh","sub17","05","07","rl","test","70","img/b_d_dots.png","7","75","pattern,shape,color","137","0",""
"null","289832","HierDypbgdtfqh","sub17","05","07","feedback","test","null","","","na","","137","",""
"1109.2999999523163","290943","HierDypbgdtfqh","sub17","05","07","rl","test","72","img/b_c_diag.png","1","65","pattern,shape,color","138","0",""
"null","291953","HierDypbgdtfqh","sub17","05","07","feedback","test","null","","","na","","138","",""
"1029.4000000357628","292984","HierDypbgdtfqh","sub17","05","07","rl","test","68","img/b_d_diag.png","3","68","pattern,shape,color","139","1",""
"null","293993","HierDypbgdtfqh","sub17","05","07","feedback","test","null","","","na","","139","",""
"1222","295216","HierDypbgdtfqh","sub17","05","07","rl","test","83","img/p_c_diag.png","2","83","pattern,shape,color","140","1",""
"null","296224","HierDypbgdtfqh","sub17","05","07","feedback","test","null","","","na","","140","",""
"1099.4000000357628","297325","HierDypbgdtfqh","sub17","05","07","rl","test","72","img/b_c_dots.png","5","72","pattern,shape,color","141","1",""
"null","298329","HierDypbgdtfqh","sub17","05","07","feedback","test","null","","","na","","141","",""
"657.8999999761581","298989","HierDypbgdtfqh","sub17","05","07","rl","test","75","img/b_d_dots.png","7","75","pattern,shape,color","142","1",""
"null","299992","HierDypbgdtfqh","sub17","05","07","feedback","test","null","","","na","","142","",""
"1215.1000000238419","301209","HierDypbgdtfqh","sub17","05","07","rl","test","68","img/p_d_diag.png","4","70","pattern,shape,color","143","0",""
"null","302217","HierDypbgdtfqh","sub17","05","07","feedback","test","null","","","na","","143","",""
"857.5","303076","HierDypbgdtfqh","sub17","05","07","rl","test","74","img/p_c_dots.png","6","74","pattern,shape,color","144","1",""
"null","304082","HierDypbgdtfqh","sub17","05","07","feedback","test","null","","","na","","144","",""
"581.1000000238419","304664","HierDypbgdtfqh","sub17","05","07","rl","test","74","img/p_c_dots.png","6","74","pattern,shape,color","145","1",""
"null","305672","HierDypbgdtfqh","sub17","05","07","feedback","test","null","","","na","","145","",""
"820.6000000238419","306494","HierDypbgdtfqh","sub17","05","07","rl","test","83","img/p_c_diag.png","2","83","pattern,shape,color","146","1",""
"null","307507","HierDypbgdtfqh","sub17","05","07","feedback","test","null","","","na","","146","",""
"809.5","308318","HierDypbgdtfqh","sub17","05","07","rl","test","74","img/p_c_dots.png","6","74","pattern,shape,color","147","1",""
"null","309329","HierDypbgdtfqh","sub17","05","07","feedback","test","null","","","na","","147","",""
"655.6999999880791","309986","HierDypbgdtfqh","sub17","05","07","rl","test","72","img/b_c_dots.png","5","72","pattern,shape,color","148","1",""
"null","310992","HierDypbgdtfqh","sub17","05","07","feedback","test","null","","","na","","148","",""
"907.5","311901","HierDypbgdtfqh","sub17","05","07","rl","test","70","img/p_d_diag.png","4","70","pattern,shape,color","149","1",""
"null","312905","HierDypbgdtfqh","sub17","05","07","feedback","test","null","","","na","","149","",""
"751","313657","HierDypbgdtfqh","sub17","05","07","rl","test","76","img/p_d_dots.png","8","76","pattern,shape,color","150","1",""
"null","314663","HierDypbgdtfqh","sub17","05","07","feedback","test","null","","","na","","150","",""
"663","315328","HierDypbgdtfqh","sub17","05","07","rl","test","75","img/b_d_dots.png","7","75","pattern,shape,color","151","1",""
"null","316337","HierDypbgdtfqh","sub17","05","07","feedback","test","null","","","na","","151","",""
"685","317023","HierDypbgdtfqh","sub17","05","07","rl","test","68","img/b_d_diag.png","3","68","pattern,shape,color","152","1",""
"null","318033","HierDypbgdtfqh","sub17","05","07","feedback","test","null","","","na","","152","",""
"1210.0999999642372","319245","HierDypbgdtfqh","sub17","05","07","rl","test","65","img/b_c_diag.png","1","65","pattern,shape,color","153","1",""
"null","320249","HierDypbgdtfqh","sub17","05","07","feedback","test","null","","","na","","153","",""
"713.8000000119209","320964","HierDypbgdtfqh","sub17","05","07","rl","test","70","img/p_d_diag.png","4","70","pattern,shape,color","154","1",""
"null","321970","HierDypbgdtfqh","sub17","05","07","feedback","test","null","","","na","","154","",""
"948.5999999642372","322920","HierDypbgdtfqh","sub17","05","07","rl","test","75","img/b_d_dots.png","7","75","pattern,shape,color","155","1",""
"null","323929","HierDypbgdtfqh","sub17","05","07","feedback","test","null","","","na","","155","",""
"2279","326210","HierDypbgdtfqh","sub17","05","07","rl","test","83","img/p_c_diag.png","2","83","pattern,shape,color","156","1",""
"null","327216","HierDypbgdtfqh","sub17","05","07","feedback","test","null","","","na","","156","",""
"1076","328293","HierDypbgdtfqh","sub17","05","07","rl","test","70","img/p_d_dots.png","8","76","pattern,shape,color","157","0",""
"null","329297","HierDypbgdtfqh","sub17","05","07","feedback","test","null","","","na","","157","",""
"1077.5","330376","HierDypbgdtfqh","sub17","05","07","rl","test","65","img/p_c_diag.png","2","83","pattern,shape,color","158","0",""
"null","331386","HierDypbgdtfqh","sub17","05","07","feedback","test","null","","","na","","158","",""
"1644.300000011921","333032","HierDypbgdtfqh","sub17","05","07","rl","test","74","img/p_c_dots.png","6","74","pattern,shape,color","159","1",""
"null","334041","HierDypbgdtfqh","sub17","05","07","feedback","test","null","","","na","","159","",""
"972.1999999880791","335014","HierDypbgdtfqh","sub17","05","07","rl","test","68","img/b_d_diag.png","3","68","pattern,shape,color","160","1",""
"null","336025","HierDypbgdtfqh","sub17","05","07","feedback","test","null","","","na","","160","",""
"1189.300000011921","337215","HierDypbgdtfqh","sub17","05","07","rl","test","72","img/b_c_dots.png","5","72","pattern,shape,color","161","1",""
"null","338225","HierDypbgdtfqh","sub17","05","07","feedback","test","null","","","na","","161","",""
"468.5","338695","HierDypbgdtfqh","sub17","05","07","rl","test","72","img/b_c_dots.png","5","72","pattern,shape,color","162","1",""
"null","339704","HierDypbgdtfqh","sub17","05","07","feedback","test","null","","","na","","162","",""
"746.4000000357628","340452","HierDypbgdtfqh","sub17","05","07","rl","test","65","img/b_c_diag.png","1","65","pattern,shape,color","163","1",""
"null","341456","HierDypbgdtfqh","sub17","05","07","feedback","test","null","","","na","","163","",""
"839.6000000238419","342297","HierDypbgdtfqh","sub17","05","07","rl","test","65","img/b_c_diag.png","1","65","pattern,shape,color","164","1",""
"null","343304","HierDypbgdtfqh","sub17","05","07","feedback","test","null","","","na","","164","",""
"858.5999999642372","344164","HierDypbgdtfqh","sub17","05","07","rl","test","70","img/p_d_diag.png","4","70","pattern,shape,color","165","1",""
"null","345168","HierDypbgdtfqh","sub17","05","07","feedback","test","null","","","na","","165","",""
"687.5","345857","HierDypbgdtfqh","sub17","05","07","rl","test","76","img/p_d_dots.png","8","76","pattern,shape,color","166","1",""
"null","346863","HierDypbgdtfqh","sub17","05","07","feedback","test","null","","","na","","166","",""
"894.4000000357628","347759","HierDypbgdtfqh","sub17","05","07","rl","test","75","img/b_d_dots.png","7","75","pattern,shape,color","167","1",""
"null","348768","HierDypbgdtfqh","sub17","05","07","feedback","test","null","","","na","","167","",""
"927.3000000119209","349697","HierDypbgdtfqh","sub17","05","07","rl","test","68","img/b_d_diag.png","3","68","pattern,shape,color","168","1",""
"null","350704","HierDypbgdtfqh","sub17","05","07","feedback","test","null","","","na","","168","",""
"819.5","351525","HierDypbgdtfqh","sub17","05","07","rl","test","76","img/p_d_dots.png","8","76","pattern,shape,color","169","1",""
"null","352529","HierDypbgdtfqh","sub17","05","07","feedback","test","null","","","na","","169","",""
"1059.199999988079","353590","HierDypbgdtfqh","sub17","05","07","rl","test","68","img/b_d_diag.png","3","68","pattern,shape,color","170","1",""
"null","354601","HierDypbgdtfqh","sub17","05","07","feedback","test","null","","","na","","170","",""
"990.1999999880791","355592","HierDypbgdtfqh","sub17","05","07","rl","test","75","img/b_d_dots.png","7","75","pattern,shape,color","171","1",""
"null","356600","HierDypbgdtfqh","sub17","05","07","feedback","test","null","","","na","","171","",""
"1198.199999988079","357799","HierDypbgdtfqh","sub17","05","07","rl","test","83","img/p_c_diag.png","2","83","pattern,shape,color","172","1",""
"null","358808","HierDypbgdtfqh","sub17","05","07","feedback","test","null","","","na","","172","",""
"471.89999997615814","359281","HierDypbgdtfqh","sub17","05","07","rl","test","74","img/p_c_dots.png","6","74","pattern,shape,color","173","1",""
"null","360288","HierDypbgdtfqh","sub17","05","07","feedback","test","null","","","na","","173","",""
"789.5","361078","HierDypbgdtfqh","sub17","05","07","rl","test","75","img/b_d_dots.png","7","75","pattern,shape,color","174","1",""
"null","362081","HierDypbgdtfqh","sub17","05","07","feedback","test","null","","","na","","174","",""
"957.8000000119209","363041","HierDypbgdtfqh","sub17","05","07","rl","test","76","img/p_d_dots.png","8","76","pattern,shape,color","175","1",""
"null","364048","HierDypbgdtfqh","sub17","05","07","feedback","test","null","","","na","","175","",""
"841.3000000119209","364891","HierDypbgdtfqh","sub17","05","07","rl","test","70","img/p_d_diag.png","4","70","pattern,shape,color","176","1",""
"null","365898","HierDypbgdtfqh","sub17","05","07","feedback","test","null","","","na","","176","",""
"1293.8999999761581","367193","HierDypbgdtfqh","sub17","05","07","rl","test","72","img/b_c_dots.png","5","72","pattern,shape,color","177","1",""
"null","368200","HierDypbgdtfqh","sub17","05","07","feedback","test","null","","","na","","177","",""
"581.3000000119209","368783","HierDypbgdtfqh","sub17","05","07","rl","test","74","img/p_c_dots.png","6","74","pattern,shape,color","178","1",""
"null","369795","HierDypbgdtfqh","sub17","05","07","feedback","test","null","","","na","","178","",""
"1340.2999999523163","371137","HierDypbgdtfqh","sub17","05","07","rl","test","65","img/b_c_diag.png","1","65","pattern,shape,color","179","1",""
"null","372146","HierDypbgdtfqh","sub17","05","07","feedback","test","null","","","na","","179","",""
"846.8000000119209","372994","HierDypbgdtfqh","sub17","05","07","rl","test","83","img/p_c_diag.png","2","83","pattern,shape,color","180","1",""
"null","374000","HierDypbgdtfqh","sub17","05","07","feedback","test","null","","","na","","180","",""
"1047.699999988079","375049","HierDypbgdtfqh","sub17","05","07","rl","test","65","img/b_c_diag.png","1","65","pattern,shape,color","181","1",""
"null","376057","HierDypbgdtfqh","sub17","05","07","feedback","test","null","","","na","","181","",""
"864.3000000119209","376923","HierDypbgdtfqh","sub17","05","07","rl","test","70","img/p_d_diag.png","4","70","pattern,shape,color","182","1",""
"null","377929","HierDypbgdtfqh","sub17","05","07","feedback","test","null","","","na","","182","",""
"567.1999999880791","378498","HierDypbgdtfqh","sub17","05","07","rl","test","68","img/b_d_diag.png","3","68","pattern,shape,color","183","1",""
"null","379503","HierDypbgdtfqh","sub17","05","07","feedback","test","null","","","na","","183","",""
"1234.199999988079","380738","HierDypbgdtfqh","sub17","05","07","rl","test","72","img/b_c_dots.png","5","72","pattern,shape,color","184","1",""
"null","381746","HierDypbgdtfqh","sub17","05","07","feedback","test","null","","","na","","184","",""
"997.6999999880791","382746","HierDypbgdtfqh","sub17","05","07","rl","test","70","img/p_d_diag.png","4","70","pattern,shape,color","185","1",""
"null","383752","HierDypbgdtfqh","sub17","05","07","feedback","test","null","","","na","","185","",""
"1331.5","385085","HierDypbgdtfqh","sub17","05","07","rl","test","65","img/b_c_diag.png","1","65","pattern,shape,color","186","1",""
"null","386089","HierDypbgdtfqh","sub17","05","07","feedback","test","null","","","na","","186","",""
"779.2000000476837","386869","HierDypbgdtfqh","sub17","05","07","rl","test","68","img/b_d_diag.png","3","68","pattern,shape,color","187","1",""
"null","387874","HierDypbgdtfqh","sub17","05","07","feedback","test","null","","","na","","187","",""
"1732.9000000357628","389608","HierDypbgdtfqh","sub17","05","07","rl","test","75","img/b_d_dots.png","7","75","pattern,shape,color","188","1",""
"null","390616","HierDypbgdtfqh","sub17","05","07","feedback","test","null","","","na","","188","",""
"815.4000000357628","391433","HierDypbgdtfqh","sub17","05","07","rl","test","83","img/p_c_diag.png","2","83","pattern,shape,color","189","1",""
"null","392441","HierDypbgdtfqh","sub17","05","07","feedback","test","null","","","na","","189","",""
"1196.699999988079","393640","HierDypbgdtfqh","sub17","05","07","rl","test","75","img/p_d_dots.png","8","76","pattern,shape,color","190","0",""
"null","394649","HierDypbgdtfqh","sub17","05","07","feedback","test","null","","","na","","190","",""
"715.8999999761581","395367","HierDypbgdtfqh","sub17","05","07","rl","test","72","img/b_c_dots.png","5","72","pattern,shape,color","191","1",""
"null","396376","HierDypbgdtfqh","sub17","05","07","feedback","test","null","","","na","","191","",""
"708","397086","HierDypbgdtfqh","sub17","05","07","rl","test","74","img/p_c_dots.png","6","74","pattern,shape,color","192","1",""
"null","398099","HierDypbgdtfqh","sub17","05","07","feedback","test","null","","","na","","192","",""
"632.5999999642372","398734","HierDypbgdtfqh","sub17","05","07","rl","test","74","img/p_c_dots.png","6","74","pattern,shape,color","193","1",""
"null","399737","HierDypbgdtfqh","sub17","05","07","feedback","test","null","","","na","","193","",""
"1206.1000000238419","400943","HierDypbgdtfqh","sub17","05","07","rl","test","72","img/b_c_dots.png","5","72","pattern,shape,color","194","1",""
"null","401953","HierDypbgdtfqh","sub17","05","07","feedback","test","null","","","na","","194","",""
"1045.199999988079","403000","HierDypbgdtfqh","sub17","05","07","rl","test","70","img/p_d_diag.png","4","70","pattern,shape,color","195","1",""
"null","404009","HierDypbgdtfqh","sub17","05","07","feedback","test","null","","","na","","195","",""
"667.1000000238419","404677","HierDypbgdtfqh","sub17","05","07","rl","test","76","img/p_d_dots.png","8","76","pattern,shape,color","196","1",""
"null","405681","HierDypbgdtfqh","sub17","05","07","feedback","test","null","","","na","","196","",""
"1399.800000011921","407083","HierDypbgdtfqh","sub17","05","07","rl","test","65","img/b_c_diag.png","1","65","pattern,shape,color","197","1",""
"null","408093","HierDypbgdtfqh","sub17","05","07","feedback","test","null","","","na","","197","",""
"831.5","408925","HierDypbgdtfqh","sub17","05","07","rl","test","75","img/b_d_dots.png","7","75","pattern,shape,color","198","1",""
"null","409928","HierDypbgdtfqh","sub17","05","07","feedback","test","null","","","na","","198","",""
"1101.5999999642372","411032","HierDypbgdtfqh","sub17","05","07","rl","test","68","img/b_d_diag.png","3","68","pattern,shape,color","199","1",""
"null","412041","HierDypbgdtfqh","sub17","05","07","feedback","test","null","","","na","","199","",""
"864.5","412907","HierDypbgdtfqh","sub17","05","07","rl","test","74","img/p_c_dots.png","6","74","pattern,shape,color","200","1",""
"null","413913","HierDypbgdtfqh","sub17","05","07","feedback","test","null","","","na","","200","",""
"1262.199999988079","415176","HierDypbgdtfqh","sub17","05","07","rl","test","83","img/p_c_diag.png","2","83","pattern,shape,color","201","1",""
"null","416184","HierDypbgdtfqh","sub17","05","07","feedback","test","null","","","na","","201","",""
"610.3999999761581","416796","HierDypbgdtfqh","sub17","05","07","rl","test","72","img/b_c_dots.png","5","72","pattern,shape,color","202","1",""
"null","417802","HierDypbgdtfqh","sub17","05","07","feedback","test","null","","","na","","202","",""
"680.8999999761581","418485","HierDypbgdtfqh","sub17","05","07","rl","test","68","img/b_d_diag.png","3","68","pattern,shape,color","203","1",""
"null","419489","HierDypbgdtfqh","sub17","05","07","feedback","test","null","","","na","","203","",""
"664.5","420155","HierDypbgdtfqh","sub17","05","07","rl","test","70","img/p_d_diag.png","4","70","pattern,shape,color","204","1",""
"null","421160","HierDypbgdtfqh","sub17","05","07","feedback","test","null","","","na","","204","",""
"700.9000000357628","421862","HierDypbgdtfqh","sub17","05","07","rl","test","83","img/p_c_diag.png","2","83","pattern,shape,color","205","1",""
"null","422864","HierDypbgdtfqh","sub17","05","07","feedback","test","null","","","na","","205","",""
"1327.5","424192","HierDypbgdtfqh","sub17","05","07","rl","test","74","img/p_d_dots.png","8","76","pattern,shape,color","206","0",""
"null","425201","HierDypbgdtfqh","sub17","05","07","feedback","test","null","","","na","","206","",""
"483.0999999642372","425686","HierDypbgdtfqh","sub17","05","07","rl","test","76","img/p_d_dots.png","8","76","pattern,shape,color","207","1",""
"null","426691","HierDypbgdtfqh","sub17","05","07","feedback","test","null","","","na","","207","",""
"846.6000000238419","427539","HierDypbgdtfqh","sub17","05","07","rl","test","68","img/b_d_diag.png","3","68","pattern,shape,color","208","1",""
"null","428545","HierDypbgdtfqh","sub17","05","07","feedback","test","null","","","na","","208","",""
"697.2999999523163","429244","HierDypbgdtfqh","sub17","05","07","rl","test","70","img/p_d_diag.png","4","70","pattern,shape,color","209","1",""
"null","430249","HierDypbgdtfqh","sub17","05","07","feedback","test","null","","","na","","209","",""
"867","431118","HierDypbgdtfqh","sub17","05","07","rl","test","72","img/b_c_diag.png","1","65","pattern,shape,color","210","0",""
"null","432120","HierDypbgdtfqh","sub17","05","07","feedback","test","null","","","na","","210","",""
"702","432823","HierDypbgdtfqh","sub17","05","07","rl","test","75","img/b_d_dots.png","7","75","pattern,shape,color","211","1",""
"null","433833","HierDypbgdtfqh","sub17","05","07","feedback","test","null","","","na","","211","",""
"898.3000000119209","434733","HierDypbgdtfqh","sub17","05","07","rl","test","65","img/b_c_diag.png","1","65","pattern,shape,color","212","1",""
"null","435736","HierDypbgdtfqh","sub17","05","07","feedback","test","null","","","na","","212","",""
"1423.300000011921","437161","HierDypbgdtfqh","sub17","05","07","rl","test","75","img/b_d_dots.png","7","75","pattern,shape,color","213","1",""
"null","438169","HierDypbgdtfqh","sub17","05","07","feedback","test","null","","","na","","213","",""
"841.1000000238419","439013","HierDypbgdtfqh","sub17","05","07","rl","test","74","img/p_c_dots.png","6","74","pattern,shape,color","214","1",""
"null","440016","HierDypbgdtfqh","sub17","05","07","feedback","test","null","","","na","","214","",""
"472.60000002384186","440490","HierDypbgdtfqh","sub17","05","07","rl","test","72","img/b_c_dots.png","5","72","pattern,shape,color","215","1",""
"null","441500","HierDypbgdtfqh","sub17","05","07","feedback","test","null","","","na","","215","",""
"916.1999999880791","442418","HierDypbgdtfqh","sub17","05","07","rl","test","83","img/p_c_diag.png","2","83","pattern,shape,color","216","1",""
"null","443424","HierDypbgdtfqh","sub17","05","07","feedback","test","null","","","na","","216","",""
"585.5","444011","HierDypbgdtfqh","sub17","05","07","rl","test","83","img/p_c_diag.png","2","83","pattern,shape,color","217","1",""
"null","445017","HierDypbgdtfqh","sub17","05","07","feedback","test","null","","","na","","217","",""
"630.2000000476837","445649","HierDypbgdtfqh","sub17","05","07","rl","test","70","img/p_d_diag.png","4","70","pattern,shape,color","218","1",""
"null","446657","HierDypbgdtfqh","sub17","05","07","feedback","test","null","","","na","","218","",""
"979","447638","HierDypbgdtfqh","sub17","05","07","rl","test","76","img/p_d_dots.png","8","76","pattern,shape,color","219","1",""
"null","448641","HierDypbgdtfqh","sub17","05","07","feedback","test","null","","","na","","219","",""
"1250.800000011921","449894","HierDypbgdtfqh","sub17","05","07","rl","test","75","img/b_d_dots.png","7","75","pattern,shape,color","220","1",""
"null","450898","HierDypbgdtfqh","sub17","05","07","feedback","test","null","","","na","","220","",""
"539.8000000119209","451439","HierDypbgdtfqh","sub17","05","07","rl","test","72","img/b_c_dots.png","5","72","pattern,shape,color","221","1",""
"null","452449","HierDypbgdtfqh","sub17","05","07","feedback","test","null","","","na","","221","",""
"581.6999999880791","453032","HierDypbgdtfqh","sub17","05","07","rl","test","74","img/p_c_dots.png","6","74","pattern,shape,color","222","1",""
"null","454044","HierDypbgdtfqh","sub17","05","07","feedback","test","null","","","na","","222","",""
"1082.0999999642372","455127","HierDypbgdtfqh","sub17","05","07","rl","test","68","img/b_d_diag.png","3","68","pattern,shape,color","223","1",""
"null","456137","HierDypbgdtfqh","sub17","05","07","feedback","test","null","","","na","","223","",""
"1174.5","457313","HierDypbgdtfqh","sub17","05","07","rl","test","72","img/b_c_dots.png","5","72","pattern,shape,color","224","1",""
"null","458321","HierDypbgdtfqh","sub17","05","07","feedback","test","null","","","na","","224","",""
"1256.4000000357628","459579","HierDypbgdtfqh","sub17","05","07","rl","test","74","img/p_c_dots.png","6","74","pattern,shape,color","225","1",""
"null","460585","HierDypbgdtfqh","sub17","05","07","feedback","test","null","","","na","","225","",""
"896.5","461483","HierDypbgdtfqh","sub17","05","07","rl","test","68","img/b_c_diag.png","1","65","pattern,shape,color","226","0",""
"null","462488","HierDypbgdtfqh","sub17","05","07","feedback","test","null","","","na","","226","",""
"1082.800000011921","463572","HierDypbgdtfqh","sub17","05","07","rl","test","83","img/p_c_diag.png","2","83","pattern,shape,color","227","1",""
"null","464576","HierDypbgdtfqh","sub17","05","07","feedback","test","null","","","na","","227","",""
"597.7000000476837","465176","HierDypbgdtfqh","sub17","05","07","rl","test","68","img/b_d_diag.png","3","68","pattern,shape,color","228","1",""
"null","466186","HierDypbgdtfqh","sub17","05","07","feedback","test","null","","","na","","228","",""
"898.3000000119209","467086","HierDypbgdtfqh","sub17","05","07","rl","test","75","img/b_d_dots.png","7","75","pattern,shape,color","229","1",""
"null","468092","HierDypbgdtfqh","sub17","05","07","feedback","test","null","","","na","","229","",""
"1285.5","469379","HierDypbgdtfqh","sub17","05","07","rl","test","70","img/p_d_diag.png","4","70","pattern,shape,color","230","1",""
"null","470384","HierDypbgdtfqh","sub17","05","07","feedback","test","null","","","na","","230","",""
"530","470915","HierDypbgdtfqh","sub17","05","07","rl","test","70","img/p_d_diag.png","4","70","pattern,shape,color","231","1",""
"null","471921","HierDypbgdtfqh","sub17","05","07","feedback","test","null","","","na","","231","",""
"868","472791","HierDypbgdtfqh","sub17","05","07","rl","test","65","img/b_c_diag.png","1","65","pattern,shape,color","232","1",""
"null","473802","HierDypbgdtfqh","sub17","05","07","feedback","test","null","","","na","","232","",""
"1479.199999988079","475282","HierDypbgdtfqh","sub17","05","07","rl","test","74","img/p_c_dots.png","6","74","pattern,shape,color","233","1",""
"null","476288","HierDypbgdtfqh","sub17","05","07","feedback","test","null","","","na","","233","",""
"929.1999999880791","477219","HierDypbgdtfqh","sub17","05","07","rl","test","76","img/p_d_dots.png","8","76","pattern,shape,color","234","1",""
"null","478226","HierDypbgdtfqh","sub17","05","07","feedback","test","null","","","na","","234","",""
"1109.6000000238419","479337","HierDypbgdtfqh","sub17","05","07","rl","test","75","img/b_d_diag.png","3","68","pattern,shape,color","235","0",""
"null","480346","HierDypbgdtfqh","sub17","05","07","feedback","test","null","","","na","","235","",""
"1373.300000011921","481721","HierDypbgdtfqh","sub17","05","07","rl","test","65","img/b_c_diag.png","1","65","pattern,shape,color","236","1",""
"null","482728","HierDypbgdtfqh","sub17","05","07","feedback","test","null","","","na","","236","",""
"914.1000000238419","483644","HierDypbgdtfqh","sub17","05","07","rl","test","75","img/b_d_dots.png","7","75","pattern,shape,color","237","1",""
"null","484649","HierDypbgdtfqh","sub17","05","07","feedback","test","null","","","na","","237","",""
"1435.4000000357628","486086","HierDypbgdtfqh","sub17","05","07","rl","test","83","img/p_c_diag.png","2","83","pattern,shape,color","238","1",""
"null","487089","HierDypbgdtfqh","sub17","05","07","feedback","test","null","","","na","","238","",""
"1126.5","488217","HierDypbgdtfqh","sub17","05","07","rl","test","72","img/b_c_dots.png","5","72","pattern,shape,color","239","1",""
"null","489228","HierDypbgdtfqh","sub17","05","07","feedback","test","null","","","na","","239","",""
"1128","490358","HierDypbgdtfqh","sub17","05","07","rl","test","76","img/p_d_dots.png","8","76","pattern,shape,color","240","1",""
"null","491362","HierDypbgdtfqh","sub17","05","07","feedback","test","null","","","na","","240","",""
"543.4000000357628","491907","HierDypbgdtfqh","sub17","05","07","rl","test","75","img/b_c_dots.png","5","72","pattern,shape,color","241","0",""
"null","492912","HierDypbgdtfqh","sub17","05","07","feedback","test","null","","","na","","241","",""
"1175.3999999761581","494089","HierDypbgdtfqh","sub17","05","07","rl","test","75","img/b_d_dots.png","7","75","pattern,shape,color","242","1",""
"null","495099","HierDypbgdtfqh","sub17","05","07","feedback","test","null","","","na","","242","",""
"1027.3999999761581","496127","HierDypbgdtfqh","sub17","05","07","rl","test","74","img/p_c_dots.png","6","74","pattern,shape,color","243","1",""
"null","497139","HierDypbgdtfqh","sub17","05","07","feedback","test","null","","","na","","243","",""
"1082.0999999642372","498222","HierDypbgdtfqh","sub17","05","07","rl","test","76","img/p_d_dots.png","8","76","pattern,shape,color","244","1",""
"null","499225","HierDypbgdtfqh","sub17","05","07","feedback","test","null","","","na","","244","",""
"1247.9000000357628","500474","HierDypbgdtfqh","sub17","05","07","rl","test","83","img/p_c_diag.png","2","83","pattern,shape,color","245","1",""
"null","501482","HierDypbgdtfqh","sub17","05","07","feedback","test","null","","","na","","245","",""
"518.8999999761581","502003","HierDypbgdtfqh","sub17","05","07","rl","test","70","img/p_d_diag.png","4","70","pattern,shape,color","246","1",""
"null","503009","HierDypbgdtfqh","sub17","05","07","feedback","test","null","","","na","","246","",""
"697","503707","HierDypbgdtfqh","sub17","05","07","rl","test","68","img/b_d_diag.png","3","68","pattern,shape,color","247","1",""
"null","504713","HierDypbgdtfqh","sub17","05","07","feedback","test","null","","","na","","247","",""
"525.1000000238419","505239","HierDypbgdtfqh","sub17","05","07","rl","test","70","img/p_d_diag.png","4","70","pattern,shape,color","248","1",""
"null","506248","HierDypbgdtfqh","sub17","05","07","feedback","test","null","","","na","","248","",""
"9970","516225","HierDypbgdtfqh","sub17","05","07","","","","","","","","","","{""Q0"":""8""}"
"3233.100000023842","519462","HierDypbgdtfqh","sub17","05","07","","","","","","","","","","{""Q0"":""none""}"
"1493","520955","HierDypbgdtfqh","sub17","05","07","","","","","","","","","",""
