"rt","time_elapsed","subject","subID","group","day","trialType","phase","key_press","stim","stimNum","corrresp","hierarchy","trialNum","corr","responses"
"63082.39999961853","63085","HierDy1tpo8m5b","sub04 ","04 ","4","","","","","","","","","",""
"","64933","HierDy1tpo8m5b","sub04 ","04 ","4","fullscreen","","","","","","","","",""
"652.6999998092651","65587","HierDy1tpo8m5b","sub04 ","04 ","4","","prac","","","","","","","",""
"1188.9000000953674","66780","HierDy1tpo8m5b","sub04 ","04 ","4","","","32","","","","","","",""
"848","67630","HierDy1tpo8m5b","sub04 ","04 ","4","","prac","","","","","","","",""
"1477","69110","HierDy1tpo8m5b","sub04 ","04 ","4","rl","test","74","img/b_d_stripes.png","5","72","color,pattern,shape","1","0",""
"null","70131","HierDy1tpo8m5b","sub04 ","04 ","4","feedback","test","null","","","na","","1","",""
"1712","71845","HierDy1tpo8m5b","sub04 ","04 ","4","rl","test","65","img/o_d_stripes.png","1","65","color,pattern,shape","2","1",""
"null","72856","HierDy1tpo8m5b","sub04 ","04 ","4","feedback","test","null","","","na","","2","",""
"751.1999998092651","73609","HierDy1tpo8m5b","sub04 ","04 ","4","rl","test","70","img/o_s_check.png","4","70","color,pattern,shape","3","1",""
"null","74618","HierDy1tpo8m5b","sub04 ","04 ","4","feedback","test","null","","","na","","3","",""
"1536.1999998092651","76156","HierDy1tpo8m5b","sub04 ","04 ","4","rl","test","74","img/b_s_stripes.png","6","74","color,pattern,shape","4","1",""
"null","77171","HierDy1tpo8m5b","sub04 ","04 ","4","feedback","test","null","","","na","","4","",""
"1193.3999996185303","78367","HierDy1tpo8m5b","sub04 ","04 ","4","rl","test","68","img/o_d_check.png","3","68","color,pattern,shape","5","1",""
"null","79375","HierDy1tpo8m5b","sub04 ","04 ","4","feedback","test","null","","","na","","5","",""
"1384.0999999046326","80761","HierDy1tpo8m5b","sub04 ","04 ","4","rl","test","83","img/o_s_stripes.png","2","83","color,pattern,shape","6","1",""
"null","81774","HierDy1tpo8m5b","sub04 ","04 ","4","feedback","test","null","","","na","","6","",""
"969","82745","HierDy1tpo8m5b","sub04 ","04 ","4","rl","test","75","img/b_d_check.png","7","75","color,pattern,shape","7","1",""
"null","83752","HierDy1tpo8m5b","sub04 ","04 ","4","feedback","test","null","","","na","","7","",""
"null","86266","HierDy1tpo8m5b","sub04 ","04 ","4","rl","test","null","img/o_d_check.png","3","68","color,pattern,shape","8","0",""
"null","87281","HierDy1tpo8m5b","sub04 ","04 ","4","feedback","test","null","","","na","","8","",""
"1895.5999999046326","89179","HierDy1tpo8m5b","sub04 ","04 ","4","rl","test","76","img/b_s_check.png","8","76","color,pattern,shape","9","1",""
"null","90193","HierDy1tpo8m5b","sub04 ","04 ","4","feedback","test","null","","","na","","9","",""
"556.1999998092651","90751","HierDy1tpo8m5b","sub04 ","04 ","4","rl","test","76","img/b_s_check.png","8","76","color,pattern,shape","10","1",""
"null","91761","HierDy1tpo8m5b","sub04 ","04 ","4","feedback","test","null","","","na","","10","",""
"1627","93389","HierDy1tpo8m5b","sub04 ","04 ","4","rl","test","83","img/o_s_stripes.png","2","83","color,pattern,shape","11","1",""
"null","94410","HierDy1tpo8m5b","sub04 ","04 ","4","feedback","test","null","","","na","","11","",""
"1346.9000000953674","95759","HierDy1tpo8m5b","sub04 ","04 ","4","rl","test","72","img/b_d_stripes.png","5","72","color,pattern,shape","12","1",""
"null","96769","HierDy1tpo8m5b","sub04 ","04 ","4","feedback","test","null","","","na","","12","",""
"1148.9000000953674","97919","HierDy1tpo8m5b","sub04 ","04 ","4","rl","test","75","img/b_d_check.png","7","75","color,pattern,shape","13","1",""
"null","98926","HierDy1tpo8m5b","sub04 ","04 ","4","feedback","test","null","","","na","","13","",""
"1574.5","100503","HierDy1tpo8m5b","sub04 ","04 ","4","rl","test","74","img/b_s_stripes.png","6","74","color,pattern,shape","14","1",""
"null","101518","HierDy1tpo8m5b","sub04 ","04 ","4","feedback","test","null","","","na","","14","",""
"840.2999997138977","102360","HierDy1tpo8m5b","sub04 ","04 ","4","rl","test","65","img/o_d_stripes.png","1","65","color,pattern,shape","15","1",""
"null","103368","HierDy1tpo8m5b","sub04 ","04 ","4","feedback","test","null","","","na","","15","",""
"859.7999997138977","104229","HierDy1tpo8m5b","sub04 ","04 ","4","rl","test","70","img/o_s_check.png","4","70","color,pattern,shape","16","1",""
"null","105251","HierDy1tpo8m5b","sub04 ","04 ","4","feedback","test","null","","","na","","16","",""
"1483.9000000953674","106737","HierDy1tpo8m5b","sub04 ","04 ","4","rl","test","76","img/b_s_check.png","8","76","color,pattern,shape","17","1",""
"null","107747","HierDy1tpo8m5b","sub04 ","04 ","4","feedback","test","null","","","na","","17","",""
"1085.1999998092651","108834","HierDy1tpo8m5b","sub04 ","04 ","4","rl","test","70","img/o_s_check.png","4","70","color,pattern,shape","18","1",""
"null","109847","HierDy1tpo8m5b","sub04 ","04 ","4","feedback","test","null","","","na","","18","",""
"841.0999999046326","110690","HierDy1tpo8m5b","sub04 ","04 ","4","rl","test","75","img/o_s_stripes.png","2","83","color,pattern,shape","19","0",""
"null","111695","HierDy1tpo8m5b","sub04 ","04 ","4","feedback","test","null","","","na","","19","",""
"1863.5999999046326","113560","HierDy1tpo8m5b","sub04 ","04 ","4","rl","test","83","img/o_d_stripes.png","1","65","color,pattern,shape","20","0",""
"null","114567","HierDy1tpo8m5b","sub04 ","04 ","4","feedback","test","null","","","na","","20","",""
"1122.6999998092651","115692","HierDy1tpo8m5b","sub04 ","04 ","4","rl","test","75","img/o_d_check.png","3","68","color,pattern,shape","21","0",""
"null","116707","HierDy1tpo8m5b","sub04 ","04 ","4","feedback","test","null","","","na","","21","",""
"1778.5999999046326","118487","HierDy1tpo8m5b","sub04 ","04 ","4","rl","test","65","img/o_d_stripes.png","1","65","color,pattern,shape","22","1",""
"null","119507","HierDy1tpo8m5b","sub04 ","04 ","4","feedback","test","null","","","na","","22","",""
"2014.2999997138977","121529","HierDy1tpo8m5b","sub04 ","04 ","4","rl","test","72","img/b_d_stripes.png","5","72","color,pattern,shape","23","1",""
"null","122545","HierDy1tpo8m5b","sub04 ","04 ","4","feedback","test","null","","","na","","23","",""
"916","123463","HierDy1tpo8m5b","sub04 ","04 ","4","rl","test","75","img/o_d_check.png","3","68","color,pattern,shape","24","0",""
"null","124479","HierDy1tpo8m5b","sub04 ","04 ","4","feedback","test","null","","","na","","24","",""
"null","126996","HierDy1tpo8m5b","sub04 ","04 ","4","rl","test","null","img/b_d_check.png","7","75","color,pattern,shape","25","0",""
"null","128008","HierDy1tpo8m5b","sub04 ","04 ","4","feedback","test","null","","","na","","25","",""
"null","130516","HierDy1tpo8m5b","sub04 ","04 ","4","rl","test","null","img/b_d_check.png","7","75","color,pattern,shape","26","0",""
"null","131525","HierDy1tpo8m5b","sub04 ","04 ","4","feedback","test","null","","","na","","26","",""
"1209.0999999046326","132735","HierDy1tpo8m5b","sub04 ","04 ","4","rl","test","72","img/b_d_stripes.png","5","72","color,pattern,shape","27","1",""
"null","133749","HierDy1tpo8m5b","sub04 ","04 ","4","feedback","test","null","","","na","","27","",""
"977.7000002861023","134729","HierDy1tpo8m5b","sub04 ","04 ","4","rl","test","74","img/b_s_stripes.png","6","74","color,pattern,shape","28","1",""
"null","135750","HierDy1tpo8m5b","sub04 ","04 ","4","feedback","test","null","","","na","","28","",""
"908.5","136661","HierDy1tpo8m5b","sub04 ","04 ","4","rl","test","75","img/b_s_stripes.png","6","74","color,pattern,shape","29","0",""
"null","137672","HierDy1tpo8m5b","sub04 ","04 ","4","feedback","test","null","","","na","","29","",""
"1191.6999998092651","138865","HierDy1tpo8m5b","sub04 ","04 ","4","rl","test","70","img/o_s_check.png","4","70","color,pattern,shape","30","1",""
"null","139874","HierDy1tpo8m5b","sub04 ","04 ","4","feedback","test","null","","","na","","30","",""
"1073.3000001907349","140949","HierDy1tpo8m5b","sub04 ","04 ","4","rl","test","75","img/b_s_check.png","8","76","color,pattern,shape","31","0",""
"null","141968","HierDy1tpo8m5b","sub04 ","04 ","4","feedback","test","null","","","na","","31","",""
"1067.3999996185303","143037","HierDy1tpo8m5b","sub04 ","04 ","4","rl","test","76","img/o_s_check.png","4","70","color,pattern,shape","32","0",""
"null","144054","HierDy1tpo8m5b","sub04 ","04 ","4","feedback","test","null","","","na","","32","",""
"933.2000002861023","144989","HierDy1tpo8m5b","sub04 ","04 ","4","rl","test","65","img/o_s_stripes.png","2","83","color,pattern,shape","33","0",""
"null","145994","HierDy1tpo8m5b","sub04 ","04 ","4","feedback","test","null","","","na","","33","",""
"1326.6999998092651","147323","HierDy1tpo8m5b","sub04 ","04 ","4","rl","test","72","img/b_s_stripes.png","6","74","color,pattern,shape","34","0",""
"null","148345","HierDy1tpo8m5b","sub04 ","04 ","4","feedback","test","null","","","na","","34","",""
"null","150858","HierDy1tpo8m5b","sub04 ","04 ","4","rl","test","null","img/b_d_check.png","7","75","color,pattern,shape","35","0",""
"null","151875","HierDy1tpo8m5b","sub04 ","04 ","4","feedback","test","null","","","na","","35","",""
"1392.8000001907349","153269","HierDy1tpo8m5b","sub04 ","04 ","4","rl","test","72","img/o_s_stripes.png","2","83","color,pattern,shape","36","0",""
"null","154279","HierDy1tpo8m5b","sub04 ","04 ","4","feedback","test","null","","","na","","36","",""
"1550","155831","HierDy1tpo8m5b","sub04 ","04 ","4","rl","test","72","img/o_d_stripes.png","1","65","color,pattern,shape","37","0",""
"null","156833","HierDy1tpo8m5b","sub04 ","04 ","4","feedback","test","null","","","na","","37","",""
"829.1999998092651","157664","HierDy1tpo8m5b","sub04 ","04 ","4","rl","test","72","img/b_d_stripes.png","5","72","color,pattern,shape","38","1",""
"null","158681","HierDy1tpo8m5b","sub04 ","04 ","4","feedback","test","null","","","na","","38","",""
"null","161200","HierDy1tpo8m5b","sub04 ","04 ","4","rl","test","null","img/o_d_check.png","3","68","color,pattern,shape","39","0",""
"null","162215","HierDy1tpo8m5b","sub04 ","04 ","4","feedback","test","null","","","na","","39","",""
"545","162761","HierDy1tpo8m5b","sub04 ","04 ","4","rl","test","70","img/o_s_check.png","4","70","color,pattern,shape","40","1",""
"null","163776","HierDy1tpo8m5b","sub04 ","04 ","4","feedback","test","null","","","na","","40","",""
"1506.4000000953674","165284","HierDy1tpo8m5b","sub04 ","04 ","4","rl","test","75","img/b_s_check.png","8","76","color,pattern,shape","41","0",""
"null","166294","HierDy1tpo8m5b","sub04 ","04 ","4","feedback","test","null","","","na","","41","",""
"1562.1999998092651","167858","HierDy1tpo8m5b","sub04 ","04 ","4","rl","test","75","img/b_d_check.png","7","75","color,pattern,shape","42","1",""
"null","168879","HierDy1tpo8m5b","sub04 ","04 ","4","feedback","test","null","","","na","","42","",""
"1894.5","170775","HierDy1tpo8m5b","sub04 ","04 ","4","rl","test","65","img/o_d_stripes.png","1","65","color,pattern,shape","43","1",""
"null","171786","HierDy1tpo8m5b","sub04 ","04 ","4","feedback","test","null","","","na","","43","",""
"1457.2999997138977","173245","HierDy1tpo8m5b","sub04 ","04 ","4","rl","test","70","img/o_s_check.png","4","70","color,pattern,shape","44","1",""
"null","174254","HierDy1tpo8m5b","sub04 ","04 ","4","feedback","test","null","","","na","","44","",""
"1827.5999999046326","176083","HierDy1tpo8m5b","sub04 ","04 ","4","rl","test","75","img/o_s_stripes.png","2","83","color,pattern,shape","45","0",""
"null","177091","HierDy1tpo8m5b","sub04 ","04 ","4","feedback","test","null","","","na","","45","",""
"795.2999997138977","177888","HierDy1tpo8m5b","sub04 ","04 ","4","rl","test","76","img/o_d_check.png","3","68","color,pattern,shape","46","0",""
"null","178907","HierDy1tpo8m5b","sub04 ","04 ","4","feedback","test","null","","","na","","46","",""
"2303.0999999046326","181212","HierDy1tpo8m5b","sub04 ","04 ","4","rl","test","75","img/b_s_check.png","8","76","color,pattern,shape","47","0",""
"null","182230","HierDy1tpo8m5b","sub04 ","04 ","4","feedback","test","null","","","na","","47","",""
"1056","183288","HierDy1tpo8m5b","sub04 ","04 ","4","rl","test","72","img/b_d_stripes.png","5","72","color,pattern,shape","48","1",""
"null","184300","HierDy1tpo8m5b","sub04 ","04 ","4","feedback","test","null","","","na","","48","",""
"1573.7999997138977","185875","HierDy1tpo8m5b","sub04 ","04 ","4","rl","test","74","img/b_s_stripes.png","6","74","color,pattern,shape","49","1",""
"null","186888","HierDy1tpo8m5b","sub04 ","04 ","4","feedback","test","null","","","na","","49","",""
"825.9000000953674","187715","HierDy1tpo8m5b","sub04 ","04 ","4","rl","test","75","img/b_s_check.png","8","76","color,pattern,shape","50","0",""
"null","188733","HierDy1tpo8m5b","sub04 ","04 ","4","feedback","test","null","","","na","","50","",""
"1082.3000001907349","189817","HierDy1tpo8m5b","sub04 ","04 ","4","rl","test","65","img/o_d_stripes.png","1","65","color,pattern,shape","51","1",""
"null","190829","HierDy1tpo8m5b","sub04 ","04 ","4","feedback","test","null","","","na","","51","",""
"1178.1000003814697","192008","HierDy1tpo8m5b","sub04 ","04 ","4","rl","test","72","img/b_d_stripes.png","5","72","color,pattern,shape","52","1",""
"null","193027","HierDy1tpo8m5b","sub04 ","04 ","4","feedback","test","null","","","na","","52","",""
"1394.1999998092651","194423","HierDy1tpo8m5b","sub04 ","04 ","4","rl","test","75","img/b_d_check.png","7","75","color,pattern,shape","53","1",""
"null","195438","HierDy1tpo8m5b","sub04 ","04 ","4","feedback","test","null","","","na","","53","",""
"1732.7999997138977","197172","HierDy1tpo8m5b","sub04 ","04 ","4","rl","test","74","img/b_s_stripes.png","6","74","color,pattern,shape","54","1",""
"null","198191","HierDy1tpo8m5b","sub04 ","04 ","4","feedback","test","null","","","na","","54","",""
"1284.8000001907349","199477","HierDy1tpo8m5b","sub04 ","04 ","4","rl","test","75","img/b_d_check.png","7","75","color,pattern,shape","55","1",""
"null","200485","HierDy1tpo8m5b","sub04 ","04 ","4","feedback","test","null","","","na","","55","",""
"2064.5999999046326","202552","HierDy1tpo8m5b","sub04 ","04 ","4","rl","test","74","img/b_d_stripes.png","5","72","color,pattern,shape","56","0",""
"null","203568","HierDy1tpo8m5b","sub04 ","04 ","4","feedback","test","null","","","na","","56","",""
"null","206085","HierDy1tpo8m5b","sub04 ","04 ","4","rl","test","null","img/o_s_stripes.png","2","83","color,pattern,shape","57","0",""
"null","207091","HierDy1tpo8m5b","sub04 ","04 ","4","feedback","test","null","","","na","","57","",""
"557.5999999046326","207650","HierDy1tpo8m5b","sub04 ","04 ","4","rl","test","83","img/o_s_stripes.png","2","83","color,pattern,shape","58","1",""
"null","208665","HierDy1tpo8m5b","sub04 ","04 ","4","feedback","test","null","","","na","","58","",""
"877.1999998092651","209544","HierDy1tpo8m5b","sub04 ","04 ","4","rl","test","70","img/o_s_check.png","4","70","color,pattern,shape","59","1",""
"null","210566","HierDy1tpo8m5b","sub04 ","04 ","4","feedback","test","null","","","na","","59","",""
"943","211511","HierDy1tpo8m5b","sub04 ","04 ","4","rl","test","68","img/o_d_check.png","3","68","color,pattern,shape","60","1",""
"null","212516","HierDy1tpo8m5b","sub04 ","04 ","4","feedback","test","null","","","na","","60","",""
"1680.2000002861023","214197","HierDy1tpo8m5b","sub04 ","04 ","4","rl","test","75","img/b_s_check.png","8","76","color,pattern,shape","61","0",""
"null","215207","HierDy1tpo8m5b","sub04 ","04 ","4","feedback","test","null","","","na","","61","",""
"1226.5999999046326","216436","HierDy1tpo8m5b","sub04 ","04 ","4","rl","test","74","img/b_s_stripes.png","6","74","color,pattern,shape","62","1",""
"null","217445","HierDy1tpo8m5b","sub04 ","04 ","4","feedback","test","null","","","na","","62","",""
"1356.2999997138977","218803","HierDy1tpo8m5b","sub04 ","04 ","4","rl","test","76","img/o_d_check.png","3","68","color,pattern,shape","63","0",""
"null","219815","HierDy1tpo8m5b","sub04 ","04 ","4","feedback","test","null","","","na","","63","",""
"1183.5","221000","HierDy1tpo8m5b","sub04 ","04 ","4","rl","test","65","img/o_d_stripes.png","1","65","color,pattern,shape","64","1",""
"null","222009","HierDy1tpo8m5b","sub04 ","04 ","4","feedback","test","null","","","na","","64","",""
"817.5","222828","HierDy1tpo8m5b","sub04 ","04 ","4","rl","test","83","img/o_s_stripes.png","2","83","color,pattern,shape","65","1",""
"null","223841","HierDy1tpo8m5b","sub04 ","04 ","4","feedback","test","null","","","na","","65","",""
"1262.1999998092651","225105","HierDy1tpo8m5b","sub04 ","04 ","4","rl","test","74","img/b_d_stripes.png","5","72","color,pattern,shape","66","0",""
"null","226124","HierDy1tpo8m5b","sub04 ","04 ","4","feedback","test","null","","","na","","66","",""
"1408","227534","HierDy1tpo8m5b","sub04 ","04 ","4","rl","test","75","img/b_s_stripes.png","6","74","color,pattern,shape","67","0",""
"null","228545","HierDy1tpo8m5b","sub04 ","04 ","4","feedback","test","null","","","na","","67","",""
"1050.9000000953674","229598","HierDy1tpo8m5b","sub04 ","04 ","4","rl","test","75","img/o_s_check.png","4","70","color,pattern,shape","68","0",""
"null","230601","HierDy1tpo8m5b","sub04 ","04 ","4","feedback","test","null","","","na","","68","",""
"1517.5","232120","HierDy1tpo8m5b","sub04 ","04 ","4","rl","test","76","img/b_d_check.png","7","75","color,pattern,shape","69","0",""
"null","233135","HierDy1tpo8m5b","sub04 ","04 ","4","feedback","test","null","","","na","","69","",""
"1733.9000000953674","234871","HierDy1tpo8m5b","sub04 ","04 ","4","rl","test","72","img/o_d_stripes.png","1","65","color,pattern,shape","70","0",""
"null","235885","HierDy1tpo8m5b","sub04 ","04 ","4","feedback","test","null","","","na","","70","",""
"621.1999998092651","236508","HierDy1tpo8m5b","sub04 ","04 ","4","rl","test","74","img/b_d_check.png","7","75","color,pattern,shape","71","0",""
"null","237529","HierDy1tpo8m5b","sub04 ","04 ","4","feedback","test","null","","","na","","71","",""
"1715.7999997138977","239246","HierDy1tpo8m5b","sub04 ","04 ","4","rl","test","83","img/o_d_check.png","3","68","color,pattern,shape","72","0",""
"null","240254","HierDy1tpo8m5b","sub04 ","04 ","4","feedback","test","null","","","na","","72","",""
"1672.6999998092651","241929","HierDy1tpo8m5b","sub04 ","04 ","4","rl","test","75","img/b_s_check.png","8","76","color,pattern,shape","73","0",""
"null","242951","HierDy1tpo8m5b","sub04 ","04 ","4","feedback","test","null","","","na","","73","",""
"658.1999998092651","243610","HierDy1tpo8m5b","sub04 ","04 ","4","rl","test","75","img/b_s_check.png","8","76","color,pattern,shape","74","0",""
"null","244632","HierDy1tpo8m5b","sub04 ","04 ","4","feedback","test","null","","","na","","74","",""
"2211.9000000953674","246846","HierDy1tpo8m5b","sub04 ","04 ","4","rl","test","70","img/o_s_check.png","4","70","color,pattern,shape","75","1",""
"null","247865","HierDy1tpo8m5b","sub04 ","04 ","4","feedback","test","null","","","na","","75","",""
"1113.9000000953674","248980","HierDy1tpo8m5b","sub04 ","04 ","4","rl","test","72","img/b_d_stripes.png","5","72","color,pattern,shape","76","1",""
"null","249989","HierDy1tpo8m5b","sub04 ","04 ","4","feedback","test","null","","","na","","76","",""
"1022.3000001907349","251013","HierDy1tpo8m5b","sub04 ","04 ","4","rl","test","83","img/o_s_stripes.png","2","83","color,pattern,shape","77","1",""
"null","252025","HierDy1tpo8m5b","sub04 ","04 ","4","feedback","test","null","","","na","","77","",""
"645.4000000953674","252672","HierDy1tpo8m5b","sub04 ","04 ","4","rl","test","74","img/b_s_stripes.png","6","74","color,pattern,shape","78","1",""
"null","253684","HierDy1tpo8m5b","sub04 ","04 ","4","feedback","test","null","","","na","","78","",""
"605.9000000953674","254292","HierDy1tpo8m5b","sub04 ","04 ","4","rl","test","83","img/o_s_stripes.png","2","83","color,pattern,shape","79","1",""
"null","255311","HierDy1tpo8m5b","sub04 ","04 ","4","feedback","test","null","","","na","","79","",""
"2059","257372","HierDy1tpo8m5b","sub04 ","04 ","4","rl","test","68","img/o_d_check.png","3","68","color,pattern,shape","80","1",""
"null","258390","HierDy1tpo8m5b","sub04 ","04 ","4","feedback","test","null","","","na","","80","",""
"1336.0999999046326","259728","HierDy1tpo8m5b","sub04 ","04 ","4","rl","test","74","img/b_s_stripes.png","6","74","color,pattern,shape","81","1",""
"null","260732","HierDy1tpo8m5b","sub04 ","04 ","4","feedback","test","null","","","na","","81","",""
"1753.9000000953674","262488","HierDy1tpo8m5b","sub04 ","04 ","4","rl","test","65","img/o_d_stripes.png","1","65","color,pattern,shape","82","1",""
"null","263504","HierDy1tpo8m5b","sub04 ","04 ","4","feedback","test","null","","","na","","82","",""
"1525.5","265032","HierDy1tpo8m5b","sub04 ","04 ","4","rl","test","65","img/o_d_stripes.png","1","65","color,pattern,shape","83","1",""
"null","266047","HierDy1tpo8m5b","sub04 ","04 ","4","feedback","test","null","","","na","","83","",""
"1673.9000000953674","267723","HierDy1tpo8m5b","sub04 ","04 ","4","rl","test","75","img/b_d_check.png","7","75","color,pattern,shape","84","1",""
"null","268736","HierDy1tpo8m5b","sub04 ","04 ","4","feedback","test","null","","","na","","84","",""
"1660.6999998092651","270399","HierDy1tpo8m5b","sub04 ","04 ","4","rl","test","68","img/o_d_check.png","3","68","color,pattern,shape","85","1",""
"null","271411","HierDy1tpo8m5b","sub04 ","04 ","4","feedback","test","null","","","na","","85","",""
"1845.4000000953674","273258","HierDy1tpo8m5b","sub04 ","04 ","4","rl","test","65","img/o_d_stripes.png","1","65","color,pattern,shape","86","1",""
"null","274266","HierDy1tpo8m5b","sub04 ","04 ","4","feedback","test","null","","","na","","86","",""
"2270.8999996185303","276538","HierDy1tpo8m5b","sub04 ","04 ","4","rl","test","76","img/b_s_check.png","8","76","color,pattern,shape","87","1",""
"null","277541","HierDy1tpo8m5b","sub04 ","04 ","4","feedback","test","null","","","na","","87","",""
"2511.0999999046326","280053","HierDy1tpo8m5b","sub04 ","04 ","4","rl","test","70","img/o_s_check.png","4","70","color,pattern,shape","88","1",""
"null","281066","HierDy1tpo8m5b","sub04 ","04 ","4","feedback","test","null","","","na","","88","",""
"2282.4000000953674","283350","HierDy1tpo8m5b","sub04 ","04 ","4","rl","test","76","img/o_d_check.png","3","68","color,pattern,shape","89","0",""
"null","284356","HierDy1tpo8m5b","sub04 ","04 ","4","feedback","test","null","","","na","","89","",""
"1915.0999999046326","286273","HierDy1tpo8m5b","sub04 ","04 ","4","rl","test","70","img/b_d_stripes.png","5","72","color,pattern,shape","90","0",""
"null","287289","HierDy1tpo8m5b","sub04 ","04 ","4","feedback","test","null","","","na","","90","",""
"1908.3000001907349","289199","HierDy1tpo8m5b","sub04 ","04 ","4","rl","test","75","img/b_s_check.png","8","76","color,pattern,shape","91","0",""
"null","290203","HierDy1tpo8m5b","sub04 ","04 ","4","feedback","test","null","","","na","","91","",""
"2130.7000002861023","292335","HierDy1tpo8m5b","sub04 ","04 ","4","rl","test","76","img/b_d_check.png","7","75","color,pattern,shape","92","0",""
"null","293345","HierDy1tpo8m5b","sub04 ","04 ","4","feedback","test","null","","","na","","92","",""
"1452.5","294799","HierDy1tpo8m5b","sub04 ","04 ","4","rl","test","83","img/o_s_stripes.png","2","83","color,pattern,shape","93","1",""
"null","295814","HierDy1tpo8m5b","sub04 ","04 ","4","feedback","test","null","","","na","","93","",""
"null","298330","HierDy1tpo8m5b","sub04 ","04 ","4","rl","test","null","img/o_s_check.png","4","70","color,pattern,shape","94","0",""
"null","299347","HierDy1tpo8m5b","sub04 ","04 ","4","feedback","test","null","","","na","","94","",""
"1232.5","300581","HierDy1tpo8m5b","sub04 ","04 ","4","rl","test","74","img/b_d_stripes.png","5","72","color,pattern,shape","95","0",""
"null","301594","HierDy1tpo8m5b","sub04 ","04 ","4","feedback","test","null","","","na","","95","",""
"944","302540","HierDy1tpo8m5b","sub04 ","04 ","4","rl","test","74","img/b_s_stripes.png","6","74","color,pattern,shape","96","1",""
"null","303549","HierDy1tpo8m5b","sub04 ","04 ","4","feedback","test","null","","","na","","96","",""
"null","306068","HierDy1tpo8m5b","sub04 ","04 ","4","rl","test","null","img/b_d_stripes.png","5","72","color,pattern,shape","97","0",""
"null","307077","HierDy1tpo8m5b","sub04 ","04 ","4","feedback","test","null","","","na","","97","",""
"1392","308470","HierDy1tpo8m5b","sub04 ","04 ","4","rl","test","75","img/b_d_check.png","7","75","color,pattern,shape","98","1",""
"null","309482","HierDy1tpo8m5b","sub04 ","04 ","4","feedback","test","null","","","na","","98","",""
"null","311989","HierDy1tpo8m5b","sub04 ","04 ","4","rl","test","null","img/o_d_check.png","3","68","color,pattern,shape","99","0",""
"null","313006","HierDy1tpo8m5b","sub04 ","04 ","4","feedback","test","null","","","na","","99","",""
"null","315516","HierDy1tpo8m5b","sub04 ","04 ","4","rl","test","null","img/o_s_stripes.png","2","83","color,pattern,shape","100","0",""
"null","316524","HierDy1tpo8m5b","sub04 ","04 ","4","feedback","test","null","","","na","","100","",""
"null","319042","HierDy1tpo8m5b","sub04 ","04 ","4","rl","test","null","img/o_d_stripes.png","1","65","color,pattern,shape","101","0",""
"null","320064","HierDy1tpo8m5b","sub04 ","04 ","4","feedback","test","null","","","na","","101","",""
"850.5","320916","HierDy1tpo8m5b","sub04 ","04 ","4","rl","test","75","img/b_s_check.png","8","76","color,pattern,shape","102","0",""
"null","321932","HierDy1tpo8m5b","sub04 ","04 ","4","feedback","test","null","","","na","","102","",""
"772.7000002861023","322707","HierDy1tpo8m5b","sub04 ","04 ","4","rl","test","75","img/o_s_check.png","4","70","color,pattern,shape","103","0",""
"null","323728","HierDy1tpo8m5b","sub04 ","04 ","4","feedback","test","null","","","na","","103","",""
"null","326235","HierDy1tpo8m5b","sub04 ","04 ","4","rl","test","null","img/o_s_check.png","4","70","color,pattern,shape","104","0",""
"null","327243","HierDy1tpo8m5b","sub04 ","04 ","4","feedback","test","null","","","na","","104","",""
"1108.3999996185303","328353","HierDy1tpo8m5b","sub04 ","04 ","4","rl","test","83","img/b_s_stripes.png","6","74","color,pattern,shape","105","0",""
"null","329362","HierDy1tpo8m5b","sub04 ","04 ","4","feedback","test","null","","","na","","105","",""
"733.3000001907349","330097","HierDy1tpo8m5b","sub04 ","04 ","4","rl","test","74","img/o_s_stripes.png","2","83","color,pattern,shape","106","0",""
"null","331110","HierDy1tpo8m5b","sub04 ","04 ","4","feedback","test","null","","","na","","106","",""
"619.5999999046326","331731","HierDy1tpo8m5b","sub04 ","04 ","4","rl","test","75","img/b_s_check.png","8","76","color,pattern,shape","107","0",""
"null","332733","HierDy1tpo8m5b","sub04 ","04 ","4","feedback","test","null","","","na","","107","",""
"1321.5999999046326","334057","HierDy1tpo8m5b","sub04 ","04 ","4","rl","test","65","img/o_d_stripes.png","1","65","color,pattern,shape","108","1",""
"null","335075","HierDy1tpo8m5b","sub04 ","04 ","4","feedback","test","null","","","na","","108","",""
"836.9000000953674","335914","HierDy1tpo8m5b","sub04 ","04 ","4","rl","test","72","img/b_d_check.png","7","75","color,pattern,shape","109","0",""
"null","336923","HierDy1tpo8m5b","sub04 ","04 ","4","feedback","test","null","","","na","","109","",""
"575.6999998092651","337501","HierDy1tpo8m5b","sub04 ","04 ","4","rl","test","68","img/b_d_stripes.png","5","72","color,pattern,shape","110","0",""
"null","338513","HierDy1tpo8m5b","sub04 ","04 ","4","feedback","test","null","","","na","","110","",""
"1860.6999998092651","340375","HierDy1tpo8m5b","sub04 ","04 ","4","rl","test","68","img/o_d_check.png","3","68","color,pattern,shape","111","1",""
"null","341389","HierDy1tpo8m5b","sub04 ","04 ","4","feedback","test","null","","","na","","111","",""
"1367.1999998092651","342758","HierDy1tpo8m5b","sub04 ","04 ","4","rl","test","74","img/b_s_stripes.png","6","74","color,pattern,shape","112","1",""
"null","343769","HierDy1tpo8m5b","sub04 ","04 ","4","feedback","test","null","","","na","","112","",""
"840.1000003814697","344611","HierDy1tpo8m5b","sub04 ","04 ","4","rl","test","68","img/o_d_check.png","3","68","color,pattern,shape","113","1",""
"null","345619","HierDy1tpo8m5b","sub04 ","04 ","4","feedback","test","null","","","na","","113","",""
"939.1000003814697","346560","HierDy1tpo8m5b","sub04 ","04 ","4","rl","test","72","img/b_d_stripes.png","5","72","color,pattern,shape","114","1",""
"null","347577","HierDy1tpo8m5b","sub04 ","04 ","4","feedback","test","null","","","na","","114","",""
"799.4000000953674","348378","HierDy1tpo8m5b","sub04 ","04 ","4","rl","test","74","img/b_s_stripes.png","6","74","color,pattern,shape","115","1",""
"null","349389","HierDy1tpo8m5b","sub04 ","04 ","4","feedback","test","null","","","na","","115","",""
"1224.7999997138977","350616","HierDy1tpo8m5b","sub04 ","04 ","4","rl","test","65","img/o_d_stripes.png","1","65","color,pattern,shape","116","1",""
"null","351634","HierDy1tpo8m5b","sub04 ","04 ","4","feedback","test","null","","","na","","116","",""
"2344.4000000953674","353980","HierDy1tpo8m5b","sub04 ","04 ","4","rl","test","70","img/b_s_check.png","8","76","color,pattern,shape","117","0",""
"null","354986","HierDy1tpo8m5b","sub04 ","04 ","4","feedback","test","null","","","na","","117","",""
"933.4000000953674","355921","HierDy1tpo8m5b","sub04 ","04 ","4","rl","test","70","img/o_s_check.png","4","70","color,pattern,shape","118","1",""
"null","356936","HierDy1tpo8m5b","sub04 ","04 ","4","feedback","test","null","","","na","","118","",""
"2045.0999999046326","358982","HierDy1tpo8m5b","sub04 ","04 ","4","rl","test","70","img/o_s_check.png","4","70","color,pattern,shape","119","1",""
"null","359988","HierDy1tpo8m5b","sub04 ","04 ","4","feedback","test","null","","","na","","119","",""
"1447.7000002861023","361437","HierDy1tpo8m5b","sub04 ","04 ","4","rl","test","83","img/o_s_stripes.png","2","83","color,pattern,shape","120","1",""
"null","362442","HierDy1tpo8m5b","sub04 ","04 ","4","feedback","test","null","","","na","","120","",""
"1247.5","363685","HierDy1tpo8m5b","sub04 ","04 ","4","rl","test","74","img/b_d_check.png","7","75","color,pattern,shape","121","0",""
"null","364700","HierDy1tpo8m5b","sub04 ","04 ","4","feedback","test","null","","","na","","121","",""
"1121","365823","HierDy1tpo8m5b","sub04 ","04 ","4","rl","test","72","img/o_s_stripes.png","2","83","color,pattern,shape","122","0",""
"null","366828","HierDy1tpo8m5b","sub04 ","04 ","4","feedback","test","null","","","na","","122","",""
"1683.0999999046326","368513","HierDy1tpo8m5b","sub04 ","04 ","4","rl","test","74","img/b_s_check.png","8","76","color,pattern,shape","123","0",""
"null","369536","HierDy1tpo8m5b","sub04 ","04 ","4","feedback","test","null","","","na","","123","",""
"948","370486","HierDy1tpo8m5b","sub04 ","04 ","4","rl","test","75","img/o_d_check.png","3","68","color,pattern,shape","124","0",""
"null","371496","HierDy1tpo8m5b","sub04 ","04 ","4","feedback","test","null","","","na","","124","",""
"730.5","372229","HierDy1tpo8m5b","sub04 ","04 ","4","rl","test","76","img/o_d_stripes.png","1","65","color,pattern,shape","125","0",""
"null","373236","HierDy1tpo8m5b","sub04 ","04 ","4","feedback","test","null","","","na","","125","",""
"1072.0999999046326","374311","HierDy1tpo8m5b","sub04 ","04 ","4","rl","test","75","img/b_d_check.png","7","75","color,pattern,shape","126","1",""
"null","375322","HierDy1tpo8m5b","sub04 ","04 ","4","feedback","test","null","","","na","","126","",""
"1045.5999999046326","376369","HierDy1tpo8m5b","sub04 ","04 ","4","rl","test","72","img/b_d_stripes.png","5","72","color,pattern,shape","127","1",""
"null","377381","HierDy1tpo8m5b","sub04 ","04 ","4","feedback","test","null","","","na","","127","",""
"979.1999998092651","378362","HierDy1tpo8m5b","sub04 ","04 ","4","rl","test","72","img/b_d_stripes.png","5","72","color,pattern,shape","128","1",""
"null","379375","HierDy1tpo8m5b","sub04 ","04 ","4","feedback","test","null","","","na","","128","",""
"1087.9000000953674","380464","HierDy1tpo8m5b","sub04 ","04 ","4","rl","test","70","img/o_s_check.png","4","70","color,pattern,shape","129","1",""
"null","381470","HierDy1tpo8m5b","sub04 ","04 ","4","feedback","test","null","","","na","","129","",""
"1645.5","383118","HierDy1tpo8m5b","sub04 ","04 ","4","rl","test","68","img/b_s_stripes.png","6","74","color,pattern,shape","130","0",""
"null","384138","HierDy1tpo8m5b","sub04 ","04 ","4","feedback","test","null","","","na","","130","",""
"null","386646","HierDy1tpo8m5b","sub04 ","04 ","4","rl","test","null","img/b_s_check.png","8","76","color,pattern,shape","131","0",""
"null","387655","HierDy1tpo8m5b","sub04 ","04 ","4","feedback","test","null","","","na","","131","",""
"null","390171","HierDy1tpo8m5b","sub04 ","04 ","4","rl","test","null","img/o_s_stripes.png","2","83","color,pattern,shape","132","0",""
"null","391181","HierDy1tpo8m5b","sub04 ","04 ","4","feedback","test","null","","","na","","132","",""
"851","392034","HierDy1tpo8m5b","sub04 ","04 ","4","rl","test","65","img/b_s_stripes.png","6","74","color,pattern,shape","133","0",""
"null","393053","HierDy1tpo8m5b","sub04 ","04 ","4","feedback","test","null","","","na","","133","",""
"640.3000001907349","393696","HierDy1tpo8m5b","sub04 ","04 ","4","rl","test","72","img/o_d_stripes.png","1","65","color,pattern,shape","134","0",""
"null","394710","HierDy1tpo8m5b","sub04 ","04 ","4","feedback","test","null","","","na","","134","",""
"1874.5","396586","HierDy1tpo8m5b","sub04 ","04 ","4","rl","test","76","img/b_s_check.png","8","76","color,pattern,shape","135","1",""
"null","397605","HierDy1tpo8m5b","sub04 ","04 ","4","feedback","test","null","","","na","","135","",""
"1574.8000001907349","399182","HierDy1tpo8m5b","sub04 ","04 ","4","rl","test","70","img/o_d_check.png","3","68","color,pattern,shape","136","0",""
"null","400195","HierDy1tpo8m5b","sub04 ","04 ","4","feedback","test","null","","","na","","136","",""
"null","402713","HierDy1tpo8m5b","sub04 ","04 ","4","rl","test","null","img/b_d_check.png","7","75","color,pattern,shape","137","0",""
"null","403728","HierDy1tpo8m5b","sub04 ","04 ","4","feedback","test","null","","","na","","137","",""
"1438.5","405168","HierDy1tpo8m5b","sub04 ","04 ","4","rl","test","65","img/o_d_stripes.png","1","65","color,pattern,shape","138","1",""
"null","406186","HierDy1tpo8m5b","sub04 ","04 ","4","feedback","test","null","","","na","","138","",""
"null","408697","HierDy1tpo8m5b","sub04 ","04 ","4","rl","test","null","img/o_d_check.png","3","68","color,pattern,shape","139","0",""
"null","409702","HierDy1tpo8m5b","sub04 ","04 ","4","feedback","test","null","","","na","","139","",""
"1457","411160","HierDy1tpo8m5b","sub04 ","04 ","4","rl","test","65","img/o_s_stripes.png","2","83","color,pattern,shape","140","0",""
"null","412169","HierDy1tpo8m5b","sub04 ","04 ","4","feedback","test","null","","","na","","140","",""
"1761.3000001907349","413932","HierDy1tpo8m5b","sub04 ","04 ","4","rl","test","72","img/b_d_stripes.png","5","72","color,pattern,shape","141","1",""
"null","414947","HierDy1tpo8m5b","sub04 ","04 ","4","feedback","test","null","","","na","","141","",""
"null","417465","HierDy1tpo8m5b","sub04 ","04 ","4","rl","test","null","img/b_d_check.png","7","75","color,pattern,shape","142","0",""
"null","418478","HierDy1tpo8m5b","sub04 ","04 ","4","feedback","test","null","","","na","","142","",""
"null","420988","HierDy1tpo8m5b","sub04 ","04 ","4","rl","test","null","img/o_s_check.png","4","70","color,pattern,shape","143","0",""
"null","421996","HierDy1tpo8m5b","sub04 ","04 ","4","feedback","test","null","","","na","","143","",""
"null","424506","HierDy1tpo8m5b","sub04 ","04 ","4","rl","test","null","img/b_s_stripes.png","6","74","color,pattern,shape","144","0",""
"null","425525","HierDy1tpo8m5b","sub04 ","04 ","4","feedback","test","null","","","na","","144","",""
"null","428041","HierDy1tpo8m5b","sub04 ","04 ","4","rl","test","null","img/b_s_stripes.png","6","74","color,pattern,shape","145","0",""
"null","429064","HierDy1tpo8m5b","sub04 ","04 ","4","feedback","test","null","","","na","","145","",""
"951.4000000953674","430017","HierDy1tpo8m5b","sub04 ","04 ","4","rl","test","72","img/o_s_stripes.png","2","83","color,pattern,shape","146","0",""
"null","431033","HierDy1tpo8m5b","sub04 ","04 ","4","feedback","test","null","","","na","","146","",""
"null","433547","HierDy1tpo8m5b","sub04 ","04 ","4","rl","test","null","img/b_s_stripes.png","6","74","color,pattern,shape","147","0",""
"null","434553","HierDy1tpo8m5b","sub04 ","04 ","4","feedback","test","null","","","na","","147","",""
"1271.2999997138977","435825","HierDy1tpo8m5b","sub04 ","04 ","4","rl","test","72","img/b_d_stripes.png","5","72","color,pattern,shape","148","1",""
"null","436840","HierDy1tpo8m5b","sub04 ","04 ","4","feedback","test","null","","","na","","148","",""
"null","439359","HierDy1tpo8m5b","sub04 ","04 ","4","rl","test","null","img/o_s_check.png","4","70","color,pattern,shape","149","0",""
"null","440368","HierDy1tpo8m5b","sub04 ","04 ","4","feedback","test","null","","","na","","149","",""
"1040.9000000953674","441411","HierDy1tpo8m5b","sub04 ","04 ","4","rl","test","75","img/b_s_check.png","8","76","color,pattern,shape","150","0",""
"null","442428","HierDy1tpo8m5b","sub04 ","04 ","4","feedback","test","null","","","na","","150","",""
"null","444942","HierDy1tpo8m5b","sub04 ","04 ","4","rl","test","null","img/b_d_check.png","7","75","color,pattern,shape","151","0",""
"null","445945","HierDy1tpo8m5b","sub04 ","04 ","4","feedback","test","null","","","na","","151","",""
"2166.3999996185303","448114","HierDy1tpo8m5b","sub04 ","04 ","4","rl","test","76","img/o_d_check.png","3","68","color,pattern,shape","152","0",""
"null","449121","HierDy1tpo8m5b","sub04 ","04 ","4","feedback","test","null","","","na","","152","",""
"1256.0999999046326","450378","HierDy1tpo8m5b","sub04 ","04 ","4","rl","test","65","img/o_d_stripes.png","1","65","color,pattern,shape","153","1",""
"null","451388","HierDy1tpo8m5b","sub04 ","04 ","4","feedback","test","null","","","na","","153","",""
"1232.5999999046326","452622","HierDy1tpo8m5b","sub04 ","04 ","4","rl","test","70","img/o_s_check.png","4","70","color,pattern,shape","154","1",""
"null","453628","HierDy1tpo8m5b","sub04 ","04 ","4","feedback","test","null","","","na","","154","",""
"1777.9000000953674","455408","HierDy1tpo8m5b","sub04 ","04 ","4","rl","test","75","img/b_d_check.png","7","75","color,pattern,shape","155","1",""
"null","456429","HierDy1tpo8m5b","sub04 ","04 ","4","feedback","test","null","","","na","","155","",""
"1318.5999999046326","457749","HierDy1tpo8m5b","sub04 ","04 ","4","rl","test","83","img/o_s_stripes.png","2","83","color,pattern,shape","156","1",""
"null","458763","HierDy1tpo8m5b","sub04 ","04 ","4","feedback","test","null","","","na","","156","",""
"null","461268","HierDy1tpo8m5b","sub04 ","04 ","4","rl","test","null","img/b_s_check.png","8","76","color,pattern,shape","157","0",""
"null","462280","HierDy1tpo8m5b","sub04 ","04 ","4","feedback","test","null","","","na","","157","",""
"827.6999998092651","463109","HierDy1tpo8m5b","sub04 ","04 ","4","rl","test","83","img/o_s_stripes.png","2","83","color,pattern,shape","158","1",""
"null","464127","HierDy1tpo8m5b","sub04 ","04 ","4","feedback","test","null","","","na","","158","",""
"1399.7000002861023","465529","HierDy1tpo8m5b","sub04 ","04 ","4","rl","test","74","img/b_s_stripes.png","6","74","color,pattern,shape","159","1",""
"null","466538","HierDy1tpo8m5b","sub04 ","04 ","4","feedback","test","null","","","na","","159","",""
"1044.9000000953674","467585","HierDy1tpo8m5b","sub04 ","04 ","4","rl","test","70","img/o_d_check.png","3","68","color,pattern,shape","160","0",""
"null","468603","HierDy1tpo8m5b","sub04 ","04 ","4","feedback","test","null","","","na","","160","",""
"2329.5999999046326","470935","HierDy1tpo8m5b","sub04 ","04 ","4","rl","test","72","img/b_d_stripes.png","5","72","color,pattern,shape","161","1",""
"null","471938","HierDy1tpo8m5b","sub04 ","04 ","4","feedback","test","null","","","na","","161","",""
"2013.3000001907349","473953","HierDy1tpo8m5b","sub04 ","04 ","4","rl","test","72","img/b_d_stripes.png","5","72","color,pattern,shape","162","1",""
"null","474971","HierDy1tpo8m5b","sub04 ","04 ","4","feedback","test","null","","","na","","162","",""
"2025.6999998092651","476998","HierDy1tpo8m5b","sub04 ","04 ","4","rl","test","65","img/o_d_stripes.png","1","65","color,pattern,shape","163","1",""
"null","478004","HierDy1tpo8m5b","sub04 ","04 ","4","feedback","test","null","","","na","","163","",""
"null","480514","HierDy1tpo8m5b","sub04 ","04 ","4","rl","test","null","img/o_d_stripes.png","1","65","color,pattern,shape","164","0",""
"null","481529","HierDy1tpo8m5b","sub04 ","04 ","4","feedback","test","null","","","na","","164","",""
"1224.5999999046326","482756","HierDy1tpo8m5b","sub04 ","04 ","4","rl","test","75","img/o_s_check.png","4","70","color,pattern,shape","165","0",""
"null","483765","HierDy1tpo8m5b","sub04 ","04 ","4","feedback","test","null","","","na","","165","",""
"null","486277","HierDy1tpo8m5b","sub04 ","04 ","4","rl","test","null","img/b_s_check.png","8","76","color,pattern,shape","166","0",""
"null","487282","HierDy1tpo8m5b","sub04 ","04 ","4","feedback","test","null","","","na","","166","",""
"2101.699999809265","489386","HierDy1tpo8m5b","sub04 ","04 ","4","rl","test","68","img/b_d_check.png","7","75","color,pattern,shape","167","0",""
"null","490398","HierDy1tpo8m5b","sub04 ","04 ","4","feedback","test","null","","","na","","167","",""
"null","492912","HierDy1tpo8m5b","sub04 ","04 ","4","rl","test","null","img/o_d_check.png","3","68","color,pattern,shape","168","0",""
"null","493927","HierDy1tpo8m5b","sub04 ","04 ","4","feedback","test","null","","","na","","168","",""
"973.4000000953674","494902","HierDy1tpo8m5b","sub04 ","04 ","4","rl","test","76","img/b_s_check.png","8","76","color,pattern,shape","169","1",""
"null","495910","HierDy1tpo8m5b","sub04 ","04 ","4","feedback","test","null","","","na","","169","",""
"null","498421","HierDy1tpo8m5b","sub04 ","04 ","4","rl","test","null","img/o_d_check.png","3","68","color,pattern,shape","170","0",""
"null","499437","HierDy1tpo8m5b","sub04 ","04 ","4","feedback","test","null","","","na","","170","",""
"1897.4000000953674","501336","HierDy1tpo8m5b","sub04 ","04 ","4","rl","test","75","img/b_d_check.png","7","75","color,pattern,shape","171","1",""
"null","502342","HierDy1tpo8m5b","sub04 ","04 ","4","feedback","test","null","","","na","","171","",""
"1972.1999998092651","504316","HierDy1tpo8m5b","sub04 ","04 ","4","rl","test","72","img/o_s_stripes.png","2","83","color,pattern,shape","172","0",""
"null","505335","HierDy1tpo8m5b","sub04 ","04 ","4","feedback","test","null","","","na","","172","",""
"882.1999998092651","506219","HierDy1tpo8m5b","sub04 ","04 ","4","rl","test","65","img/b_s_stripes.png","6","74","color,pattern,shape","173","0",""
"null","507236","HierDy1tpo8m5b","sub04 ","04 ","4","feedback","test","null","","","na","","173","",""
"1897.7000002861023","509135","HierDy1tpo8m5b","sub04 ","04 ","4","rl","test","75","img/b_d_check.png","7","75","color,pattern,shape","174","1",""
"null","510155","HierDy1tpo8m5b","sub04 ","04 ","4","feedback","test","null","","","na","","174","",""
"null","512671","HierDy1tpo8m5b","sub04 ","04 ","4","rl","test","null","img/b_s_check.png","8","76","color,pattern,shape","175","0",""
"null","513682","HierDy1tpo8m5b","sub04 ","04 ","4","feedback","test","null","","","na","","175","",""
"1717.2000002861023","515401","HierDy1tpo8m5b","sub04 ","04 ","4","rl","test","70","img/o_s_check.png","4","70","color,pattern,shape","176","1",""
"null","516420","HierDy1tpo8m5b","sub04 ","04 ","4","feedback","test","null","","","na","","176","",""
"1714.5999999046326","518136","HierDy1tpo8m5b","sub04 ","04 ","4","rl","test","72","img/b_d_stripes.png","5","72","color,pattern,shape","177","1",""
"null","519138","HierDy1tpo8m5b","sub04 ","04 ","4","feedback","test","null","","","na","","177","",""
"1568.9000000953674","520709","HierDy1tpo8m5b","sub04 ","04 ","4","rl","test","74","img/b_s_stripes.png","6","74","color,pattern,shape","178","1",""
"null","521719","HierDy1tpo8m5b","sub04 ","04 ","4","feedback","test","null","","","na","","178","",""
"2343.2000002861023","524064","HierDy1tpo8m5b","sub04 ","04 ","4","rl","test","75","img/o_d_stripes.png","1","65","color,pattern,shape","179","0",""
"null","525083","HierDy1tpo8m5b","sub04 ","04 ","4","feedback","test","null","","","na","","179","",""
"984.2999997138977","526069","HierDy1tpo8m5b","sub04 ","04 ","4","rl","test","83","img/o_s_stripes.png","2","83","color,pattern,shape","180","1",""
"null","527079","HierDy1tpo8m5b","sub04 ","04 ","4","feedback","test","null","","","na","","180","",""
"1216.8999996185303","528297","HierDy1tpo8m5b","sub04 ","04 ","4","rl","test","83","img/o_d_stripes.png","1","65","color,pattern,shape","181","0",""
"null","529313","HierDy1tpo8m5b","sub04 ","04 ","4","feedback","test","null","","","na","","181","",""
"1117.5","530432","HierDy1tpo8m5b","sub04 ","04 ","4","rl","test","70","img/o_s_check.png","4","70","color,pattern,shape","182","1",""
"null","531447","HierDy1tpo8m5b","sub04 ","04 ","4","feedback","test","null","","","na","","182","",""
"992.4000000953674","532441","HierDy1tpo8m5b","sub04 ","04 ","4","rl","test","76","img/o_d_check.png","3","68","color,pattern,shape","183","0",""
"null","533454","HierDy1tpo8m5b","sub04 ","04 ","4","feedback","test","null","","","na","","183","",""
"1456.0999999046326","534911","HierDy1tpo8m5b","sub04 ","04 ","4","rl","test","75","img/b_d_stripes.png","5","72","color,pattern,shape","184","0",""
"null","535930","HierDy1tpo8m5b","sub04 ","04 ","4","feedback","test","null","","","na","","184","",""
"988.6999998092651","536920","HierDy1tpo8m5b","sub04 ","04 ","4","rl","test","70","img/o_s_check.png","4","70","color,pattern,shape","185","1",""
"null","537944","HierDy1tpo8m5b","sub04 ","04 ","4","feedback","test","null","","","na","","185","",""
"1996.6999998092651","539943","HierDy1tpo8m5b","sub04 ","04 ","4","rl","test","65","img/o_d_stripes.png","1","65","color,pattern,shape","186","1",""
"null","540960","HierDy1tpo8m5b","sub04 ","04 ","4","feedback","test","null","","","na","","186","",""
"1375.5","542337","HierDy1tpo8m5b","sub04 ","04 ","4","rl","test","68","img/o_d_check.png","3","68","color,pattern,shape","187","1",""
"null","543351","HierDy1tpo8m5b","sub04 ","04 ","4","feedback","test","null","","","na","","187","",""
"1800.2000002861023","545153","HierDy1tpo8m5b","sub04 ","04 ","4","rl","test","75","img/b_d_check.png","7","75","color,pattern,shape","188","1",""
"null","546166","HierDy1tpo8m5b","sub04 ","04 ","4","feedback","test","null","","","na","","188","",""
"null","548682","HierDy1tpo8m5b","sub04 ","04 ","4","rl","test","null","img/o_s_stripes.png","2","83","color,pattern,shape","189","0",""
"null","549703","HierDy1tpo8m5b","sub04 ","04 ","4","feedback","test","null","","","na","","189","",""
"null","552215","HierDy1tpo8m5b","sub04 ","04 ","4","rl","test","null","img/b_s_check.png","8","76","color,pattern,shape","190","0",""
"null","553223","HierDy1tpo8m5b","sub04 ","04 ","4","feedback","test","null","","","na","","190","",""
"1295.4000000953674","554520","HierDy1tpo8m5b","sub04 ","04 ","4","rl","test","76","img/b_d_stripes.png","5","72","color,pattern,shape","191","0",""
"null","555530","HierDy1tpo8m5b","sub04 ","04 ","4","feedback","test","null","","","na","","191","",""
"2114","557646","HierDy1tpo8m5b","sub04 ","04 ","4","rl","test","76","img/b_s_stripes.png","6","74","color,pattern,shape","192","0",""
"null","558659","HierDy1tpo8m5b","sub04 ","04 ","4","feedback","test","null","","","na","","192","",""
"null","561182","HierDy1tpo8m5b","sub04 ","04 ","4","rl","test","null","img/b_s_stripes.png","6","74","color,pattern,shape","193","0",""
"null","562198","HierDy1tpo8m5b","sub04 ","04 ","4","feedback","test","null","","","na","","193","",""
"733.3000001907349","562933","HierDy1tpo8m5b","sub04 ","04 ","4","rl","test","75","img/b_d_stripes.png","5","72","color,pattern,shape","194","0",""
"null","563944","HierDy1tpo8m5b","sub04 ","04 ","4","feedback","test","null","","","na","","194","",""
"912.0999999046326","564858","HierDy1tpo8m5b","sub04 ","04 ","4","rl","test","74","img/o_s_check.png","4","70","color,pattern,shape","195","0",""
"null","565873","HierDy1tpo8m5b","sub04 ","04 ","4","feedback","test","null","","","na","","195","",""
"1419.5","567294","HierDy1tpo8m5b","sub04 ","04 ","4","rl","test","70","img/b_s_check.png","8","76","color,pattern,shape","196","0",""
"null","568312","HierDy1tpo8m5b","sub04 ","04 ","4","feedback","test","null","","","na","","196","",""
"2215.4000000953674","570529","HierDy1tpo8m5b","sub04 ","04 ","4","rl","test","65","img/o_d_stripes.png","1","65","color,pattern,shape","197","1",""
"null","571539","HierDy1tpo8m5b","sub04 ","04 ","4","feedback","test","null","","","na","","197","",""
"null","574063","HierDy1tpo8m5b","sub04 ","04 ","4","rl","test","null","img/b_d_check.png","7","75","color,pattern,shape","198","0",""
"null","575085","HierDy1tpo8m5b","sub04 ","04 ","4","feedback","test","null","","","na","","198","",""
"1649.9000000953674","576737","HierDy1tpo8m5b","sub04 ","04 ","4","rl","test","70","img/o_d_check.png","3","68","color,pattern,shape","199","0",""
"null","577760","HierDy1tpo8m5b","sub04 ","04 ","4","feedback","test","null","","","na","","199","",""
"null","580273","HierDy1tpo8m5b","sub04 ","04 ","4","rl","test","null","img/b_s_stripes.png","6","74","color,pattern,shape","200","0",""
"null","581296","HierDy1tpo8m5b","sub04 ","04 ","4","feedback","test","null","","","na","","200","",""
"1040.5","582339","HierDy1tpo8m5b","sub04 ","04 ","4","rl","test","75","img/o_s_stripes.png","2","83","color,pattern,shape","201","0",""
"null","583356","HierDy1tpo8m5b","sub04 ","04 ","4","feedback","test","null","","","na","","201","",""
"null","585875","HierDy1tpo8m5b","sub04 ","04 ","4","rl","test","null","img/b_d_stripes.png","5","72","color,pattern,shape","202","0",""
"null","586896","HierDy1tpo8m5b","sub04 ","04 ","4","feedback","test","null","","","na","","202","",""
"943.8999996185303","587842","HierDy1tpo8m5b","sub04 ","04 ","4","rl","test","75","img/o_d_check.png","3","68","color,pattern,shape","203","0",""
"null","588851","HierDy1tpo8m5b","sub04 ","04 ","4","feedback","test","null","","","na","","203","",""
"1045.3999996185303","589899","HierDy1tpo8m5b","sub04 ","04 ","4","rl","test","76","img/o_s_check.png","4","70","color,pattern,shape","204","0",""
"null","590901","HierDy1tpo8m5b","sub04 ","04 ","4","feedback","test","null","","","na","","204","",""
"1795.2999997138977","592697","HierDy1tpo8m5b","sub04 ","04 ","4","rl","test","74","img/o_s_stripes.png","2","83","color,pattern,shape","205","0",""
"null","593711","HierDy1tpo8m5b","sub04 ","04 ","4","feedback","test","null","","","na","","205","",""
"2304.5999999046326","596017","HierDy1tpo8m5b","sub04 ","04 ","4","rl","test","68","img/b_s_check.png","8","76","color,pattern,shape","206","0",""
"null","597037","HierDy1tpo8m5b","sub04 ","04 ","4","feedback","test","null","","","na","","206","",""
"1747.8999996185303","598787","HierDy1tpo8m5b","sub04 ","04 ","4","rl","test","76","img/b_s_check.png","8","76","color,pattern,shape","207","1",""
"null","599804","HierDy1tpo8m5b","sub04 ","04 ","4","feedback","test","null","","","na","","207","",""
"612.8000001907349","600419","HierDy1tpo8m5b","sub04 ","04 ","4","rl","test","70","img/o_d_check.png","3","68","color,pattern,shape","208","0",""
"null","601436","HierDy1tpo8m5b","sub04 ","04 ","4","feedback","test","null","","","na","","208","",""
"998.7999997138977","602437","HierDy1tpo8m5b","sub04 ","04 ","4","rl","test","75","img/o_s_check.png","4","70","color,pattern,shape","209","0",""
"null","603448","HierDy1tpo8m5b","sub04 ","04 ","4","feedback","test","null","","","na","","209","",""
"897.5","604348","HierDy1tpo8m5b","sub04 ","04 ","4","rl","test","75","img/o_d_stripes.png","1","65","color,pattern,shape","210","0",""
"null","605365","HierDy1tpo8m5b","sub04 ","04 ","4","feedback","test","null","","","na","","210","",""
"1559.1000003814697","606926","HierDy1tpo8m5b","sub04 ","04 ","4","rl","test","76","img/b_d_check.png","7","75","color,pattern,shape","211","0",""
"null","607940","HierDy1tpo8m5b","sub04 ","04 ","4","feedback","test","null","","","na","","211","",""
"1386.1999998092651","609326","HierDy1tpo8m5b","sub04 ","04 ","4","rl","test","65","img/o_d_stripes.png","1","65","color,pattern,shape","212","1",""
"null","610332","HierDy1tpo8m5b","sub04 ","04 ","4","feedback","test","null","","","na","","212","",""
"1890.6999998092651","612225","HierDy1tpo8m5b","sub04 ","04 ","4","rl","test","75","img/b_d_check.png","7","75","color,pattern,shape","213","1",""
"null","613237","HierDy1tpo8m5b","sub04 ","04 ","4","feedback","test","null","","","na","","213","",""
"1319.7999997138977","614559","HierDy1tpo8m5b","sub04 ","04 ","4","rl","test","74","img/b_s_stripes.png","6","74","color,pattern,shape","214","1",""
"null","615573","HierDy1tpo8m5b","sub04 ","04 ","4","feedback","test","null","","","na","","214","",""
"1219.1999998092651","616794","HierDy1tpo8m5b","sub04 ","04 ","4","rl","test","83","img/b_d_stripes.png","5","72","color,pattern,shape","215","0",""
"null","617811","HierDy1tpo8m5b","sub04 ","04 ","4","feedback","test","null","","","na","","215","",""
"1266.6999998092651","619080","HierDy1tpo8m5b","sub04 ","04 ","4","rl","test","74","img/o_s_stripes.png","2","83","color,pattern,shape","216","0",""
"null","620085","HierDy1tpo8m5b","sub04 ","04 ","4","feedback","test","null","","","na","","216","",""
"683.7999997138977","620770","HierDy1tpo8m5b","sub04 ","04 ","4","rl","test","75","img/o_s_stripes.png","2","83","color,pattern,shape","217","0",""
"null","621789","HierDy1tpo8m5b","sub04 ","04 ","4","feedback","test","null","","","na","","217","",""
"528.0999999046326","622318","HierDy1tpo8m5b","sub04 ","04 ","4","rl","test","65","img/o_s_check.png","4","70","color,pattern,shape","218","0",""
"null","623331","HierDy1tpo8m5b","sub04 ","04 ","4","feedback","test","null","","","na","","218","",""
"466","623799","HierDy1tpo8m5b","sub04 ","04 ","4","rl","test","75","img/b_s_check.png","8","76","color,pattern,shape","219","0",""
"null","624817","HierDy1tpo8m5b","sub04 ","04 ","4","feedback","test","null","","","na","","219","",""
"491.19999980926514","625310","HierDy1tpo8m5b","sub04 ","04 ","4","rl","test","74","img/b_d_check.png","7","75","color,pattern,shape","220","0",""
"null","626325","HierDy1tpo8m5b","sub04 ","04 ","4","feedback","test","null","","","na","","220","",""
"623.5","626950","HierDy1tpo8m5b","sub04 ","04 ","4","rl","test","74","img/b_d_stripes.png","5","72","color,pattern,shape","221","0",""
"null","627967","HierDy1tpo8m5b","sub04 ","04 ","4","feedback","test","null","","","na","","221","",""
"398.09999990463257","628367","HierDy1tpo8m5b","sub04 ","04 ","4","rl","test","68","img/b_s_stripes.png","6","74","color,pattern,shape","222","0",""
"null","629385","HierDy1tpo8m5b","sub04 ","04 ","4","feedback","test","null","","","na","","222","",""
"848.3000001907349","630235","HierDy1tpo8m5b","sub04 ","04 ","4","rl","test","75","img/o_d_check.png","3","68","color,pattern,shape","223","0",""
"null","631249","HierDy1tpo8m5b","sub04 ","04 ","4","feedback","test","null","","","na","","223","",""
"700.9000000953674","631952","HierDy1tpo8m5b","sub04 ","04 ","4","rl","test","76","img/b_d_stripes.png","5","72","color,pattern,shape","224","0",""
"null","632962","HierDy1tpo8m5b","sub04 ","04 ","4","feedback","test","null","","","na","","224","",""
"1839.0999999046326","634804","HierDy1tpo8m5b","sub04 ","04 ","4","rl","test","70","img/b_s_stripes.png","6","74","color,pattern,shape","225","0",""
"null","635811","HierDy1tpo8m5b","sub04 ","04 ","4","feedback","test","null","","","na","","225","",""
"1279.0999999046326","637092","HierDy1tpo8m5b","sub04 ","04 ","4","rl","test","65","img/o_d_stripes.png","1","65","color,pattern,shape","226","1",""
"null","638105","HierDy1tpo8m5b","sub04 ","04 ","4","feedback","test","null","","","na","","226","",""
"1019.8000001907349","639126","HierDy1tpo8m5b","sub04 ","04 ","4","rl","test","74","img/o_s_stripes.png","2","83","color,pattern,shape","227","0",""
"null","640142","HierDy1tpo8m5b","sub04 ","04 ","4","feedback","test","null","","","na","","227","",""
"1336.5999999046326","641480","HierDy1tpo8m5b","sub04 ","04 ","4","rl","test","68","img/o_d_check.png","3","68","color,pattern,shape","228","1",""
"null","642493","HierDy1tpo8m5b","sub04 ","04 ","4","feedback","test","null","","","na","","228","",""
"1151.6000003814697","643646","HierDy1tpo8m5b","sub04 ","04 ","4","rl","test","75","img/b_d_check.png","7","75","color,pattern,shape","229","1",""
"null","644665","HierDy1tpo8m5b","sub04 ","04 ","4","feedback","test","null","","","na","","229","",""
"1291.6999998092651","645959","HierDy1tpo8m5b","sub04 ","04 ","4","rl","test","70","img/o_s_check.png","4","70","color,pattern,shape","230","1",""
"null","646975","HierDy1tpo8m5b","sub04 ","04 ","4","feedback","test","null","","","na","","230","",""
"980.9000000953674","647958","HierDy1tpo8m5b","sub04 ","04 ","4","rl","test","70","img/o_s_check.png","4","70","color,pattern,shape","231","1",""
"null","648971","HierDy1tpo8m5b","sub04 ","04 ","4","feedback","test","null","","","na","","231","",""
"1530.3999996185303","650503","HierDy1tpo8m5b","sub04 ","04 ","4","rl","test","65","img/o_d_stripes.png","1","65","color,pattern,shape","232","1",""
"null","651511","HierDy1tpo8m5b","sub04 ","04 ","4","feedback","test","null","","","na","","232","",""
"1059.7999997138977","652572","HierDy1tpo8m5b","sub04 ","04 ","4","rl","test","65","img/b_s_stripes.png","6","74","color,pattern,shape","233","0",""
"null","653575","HierDy1tpo8m5b","sub04 ","04 ","4","feedback","test","null","","","na","","233","",""
"2240.1000003814697","655817","HierDy1tpo8m5b","sub04 ","04 ","4","rl","test","72","img/b_s_check.png","8","76","color,pattern,shape","234","0",""
"null","656829","HierDy1tpo8m5b","sub04 ","04 ","4","feedback","test","null","","","na","","234","",""
"null","659345","HierDy1tpo8m5b","sub04 ","04 ","4","rl","test","null","img/o_d_check.png","3","68","color,pattern,shape","235","0",""
"null","660365","HierDy1tpo8m5b","sub04 ","04 ","4","feedback","test","null","","","na","","235","",""
"1264.6000003814697","661631","HierDy1tpo8m5b","sub04 ","04 ","4","rl","test","65","img/o_d_stripes.png","1","65","color,pattern,shape","236","1",""
"null","662644","HierDy1tpo8m5b","sub04 ","04 ","4","feedback","test","null","","","na","","236","",""
"1090.5999999046326","663736","HierDy1tpo8m5b","sub04 ","04 ","4","rl","test","72","img/b_d_check.png","7","75","color,pattern,shape","237","0",""
"null","664738","HierDy1tpo8m5b","sub04 ","04 ","4","feedback","test","null","","","na","","237","",""
"1899.3000001907349","666639","HierDy1tpo8m5b","sub04 ","04 ","4","rl","test","74","img/o_s_stripes.png","2","83","color,pattern,shape","238","0",""
"null","667655","HierDy1tpo8m5b","sub04 ","04 ","4","feedback","test","null","","","na","","238","",""
"null","670167","HierDy1tpo8m5b","sub04 ","04 ","4","rl","test","null","img/b_d_stripes.png","5","72","color,pattern,shape","239","0",""
"null","671175","HierDy1tpo8m5b","sub04 ","04 ","4","feedback","test","null","","","na","","239","",""
"13.599999904632568","671191","HierDy1tpo8m5b","sub04 ","04 ","4","rl","test","72","img/b_s_check.png","8","76","color,pattern,shape","240","0",""
"null","672204","HierDy1tpo8m5b","sub04 ","04 ","4","feedback","test","null","","","na","","240","",""
"null","674723","HierDy1tpo8m5b","sub04 ","04 ","4","rl","test","null","img/b_d_stripes.png","5","72","color,pattern,shape","241","0",""
"null","675737","HierDy1tpo8m5b","sub04 ","04 ","4","feedback","test","null","","","na","","241","",""
"1153.3000001907349","676892","HierDy1tpo8m5b","sub04 ","04 ","4","rl","test","72","img/b_d_check.png","7","75","color,pattern,shape","242","0",""
"null","677900","HierDy1tpo8m5b","sub04 ","04 ","4","feedback","test","null","","","na","","242","",""
"null","680410","HierDy1tpo8m5b","sub04 ","04 ","4","rl","test","null","img/b_s_stripes.png","6","74","color,pattern,shape","243","0",""
"null","681430","HierDy1tpo8m5b","sub04 ","04 ","4","feedback","test","null","","","na","","243","",""
"2073.7999997138977","683506","HierDy1tpo8m5b","sub04 ","04 ","4","rl","test","72","img/b_s_check.png","8","76","color,pattern,shape","244","0",""
"null","684529","HierDy1tpo8m5b","sub04 ","04 ","4","feedback","test","null","","","na","","244","",""
"1125","685656","HierDy1tpo8m5b","sub04 ","04 ","4","rl","test","65","img/o_s_stripes.png","2","83","color,pattern,shape","245","0",""
"null","686669","HierDy1tpo8m5b","sub04 ","04 ","4","feedback","test","null","","","na","","245","",""
"2405.3999996185303","689076","HierDy1tpo8m5b","sub04 ","04 ","4","rl","test","72","img/o_s_check.png","4","70","color,pattern,shape","246","0",""
"null","690089","HierDy1tpo8m5b","sub04 ","04 ","4","feedback","test","null","","","na","","246","",""
"1113.5","691204","HierDy1tpo8m5b","sub04 ","04 ","4","rl","test","70","img/o_d_check.png","3","68","color,pattern,shape","247","0",""
"null","692213","HierDy1tpo8m5b","sub04 ","04 ","4","feedback","test","null","","","na","","247","",""
"832.3000001907349","693047","HierDy1tpo8m5b","sub04 ","04 ","4","rl","test","68","img/o_s_check.png","4","70","color,pattern,shape","248","0",""
"null","694051","HierDy1tpo8m5b","sub04 ","04 ","4","feedback","test","null","","","na","","248","",""
"4537.699999809265","698598","HierDy1tpo8m5b","sub04 ","04 ","4","","","","","","","","","","{""Q0"":""10""}"
"1165.8000001907349","699769","HierDy1tpo8m5b","sub04 ","04 ","4","","","","","","","","","","{""Q0"":""""}"
"5043.299999713898","704814","HierDy1tpo8m5b","sub04 ","04 ","4","","","","","","","","","",""
