"rt","time_elapsed","subject","subID","group","day","trialType","phase","key_press","stim","stimNum","corrresp","hierarchy","trialNum","corr","responses"
"18000.40000000596","18004","HierDyqg24dhka","sub26","02","04","","","","","","","","","",""
"","19679","HierDyqg24dhka","sub26","02","04","fullscreen","","","","","","","","",""
"1675.6000000089407","21356","HierDyqg24dhka","sub26","02","04","","prac","","","","","","","",""
"1313.3999999910593","22674","HierDyqg24dhka","sub26","02","04","","","32","","","","","","",""
"2841.5","25517","HierDyqg24dhka","sub26","02","04","","prac","","","","","","","",""
"1324.6000000089407","26845","HierDyqg24dhka","sub26","02","04","rl","test","70","img/p_d_diag.png","4","70","color,shape,pattern","1","1",""
"null","27850","HierDyqg24dhka","sub26","02","04","feedback","test","null","","","na","","1","",""
"1216.0999999940395","29069","HierDyqg24dhka","sub26","02","04","rl","test","74","img/o_t_diag.png","6","74","color,shape,pattern","2","1",""
"null","30074","HierDyqg24dhka","sub26","02","04","feedback","test","null","","","na","","2","",""
"2101.2000000029802","32178","HierDyqg24dhka","sub26","02","04","rl","test","68","img/p_d_check.png","3","68","color,shape,pattern","3","1",""
"null","33186","HierDyqg24dhka","sub26","02","04","feedback","test","null","","","na","","3","",""
"712.0999999940395","33901","HierDyqg24dhka","sub26","02","04","rl","test","68","img/p_t_check.png","1","65","color,shape,pattern","4","0",""
"null","34906","HierDyqg24dhka","sub26","02","04","feedback","test","null","","","na","","4","",""
"2472.0999999940395","37381","HierDyqg24dhka","sub26","02","04","rl","test","75","img/o_d_check.png","7","75","color,shape,pattern","5","1",""
"null","38389","HierDyqg24dhka","sub26","02","04","feedback","test","null","","","na","","5","",""
"1062.2999999970198","39454","HierDyqg24dhka","sub26","02","04","rl","test","72","img/o_t_check.png","5","72","color,shape,pattern","6","1",""
"null","40462","HierDyqg24dhka","sub26","02","04","feedback","test","null","","","na","","6","",""
"2210.199999988079","42674","HierDyqg24dhka","sub26","02","04","rl","test","83","img/p_t_diag.png","2","83","color,shape,pattern","7","1",""
"null","43686","HierDyqg24dhka","sub26","02","04","feedback","test","null","","","na","","7","",""
"2225.0999999940395","45913","HierDyqg24dhka","sub26","02","04","rl","test","74","img/o_d_check.png","7","75","color,shape,pattern","8","0",""
"null","46922","HierDyqg24dhka","sub26","02","04","feedback","test","null","","","na","","8","",""
"null","49430","HierDyqg24dhka","sub26","02","04","rl","test","null","img/o_t_diag.png","6","74","color,shape,pattern","9","0",""
"null","50433","HierDyqg24dhka","sub26","02","04","feedback","test","null","","","na","","9","",""
"1693.0999999940395","52128","HierDyqg24dhka","sub26","02","04","rl","test","76","img/o_d_diag.png","8","76","color,shape,pattern","10","1",""
"null","53138","HierDyqg24dhka","sub26","02","04","feedback","test","null","","","na","","10","",""
"2273.8999999910593","55414","HierDyqg24dhka","sub26","02","04","rl","test","76","img/o_d_diag.png","8","76","color,shape,pattern","11","1",""
"null","56420","HierDyqg24dhka","sub26","02","04","feedback","test","null","","","na","","11","",""
"893.2999999970198","57315","HierDyqg24dhka","sub26","02","04","rl","test","65","img/p_t_check.png","1","65","color,shape,pattern","12","1",""
"null","58323","HierDyqg24dhka","sub26","02","04","feedback","test","null","","","na","","12","",""
"2230.0999999940395","60555","HierDyqg24dhka","sub26","02","04","rl","test","70","img/p_d_diag.png","4","70","color,shape,pattern","13","1",""
"null","61566","HierDyqg24dhka","sub26","02","04","feedback","test","null","","","na","","13","",""
"1876.1000000089407","63444","HierDyqg24dhka","sub26","02","04","rl","test","68","img/p_d_check.png","3","68","color,shape,pattern","14","1",""
"null","64451","HierDyqg24dhka","sub26","02","04","feedback","test","null","","","na","","14","",""
"928.7999999970198","65383","HierDyqg24dhka","sub26","02","04","rl","test","70","img/p_d_diag.png","4","70","color,shape,pattern","15","1",""
"null","66398","HierDyqg24dhka","sub26","02","04","feedback","test","null","","","na","","15","",""
"828.2000000029802","67228","HierDyqg24dhka","sub26","02","04","rl","test","83","img/p_t_diag.png","2","83","color,shape,pattern","16","1",""
"null","68238","HierDyqg24dhka","sub26","02","04","feedback","test","null","","","na","","16","",""
"687.8999999910593","68928","HierDyqg24dhka","sub26","02","04","rl","test","76","img/o_d_diag.png","8","76","color,shape,pattern","17","1",""
"null","69938","HierDyqg24dhka","sub26","02","04","feedback","test","null","","","na","","17","",""
"775.4000000059605","70716","HierDyqg24dhka","sub26","02","04","rl","test","72","img/o_t_check.png","5","72","color,shape,pattern","18","1",""
"null","71722","HierDyqg24dhka","sub26","02","04","feedback","test","null","","","na","","18","",""
"843.9000000059605","72567","HierDyqg24dhka","sub26","02","04","rl","test","83","img/p_t_diag.png","2","83","color,shape,pattern","19","1",""
"null","73581","HierDyqg24dhka","sub26","02","04","feedback","test","null","","","na","","19","",""
"1264.6000000089407","74848","HierDyqg24dhka","sub26","02","04","rl","test","72","img/o_t_check.png","5","72","color,shape,pattern","20","1",""
"null","75861","HierDyqg24dhka","sub26","02","04","feedback","test","null","","","na","","20","",""
"1093.0999999940395","76957","HierDyqg24dhka","sub26","02","04","rl","test","68","img/p_d_check.png","3","68","color,shape,pattern","21","1",""
"null","77963","HierDyqg24dhka","sub26","02","04","feedback","test","null","","","na","","21","",""
"962.6000000089407","78928","HierDyqg24dhka","sub26","02","04","rl","test","75","img/o_d_check.png","7","75","color,shape,pattern","22","1",""
"null","79938","HierDyqg24dhka","sub26","02","04","feedback","test","null","","","na","","22","",""
"1413.2999999970198","81353","HierDyqg24dhka","sub26","02","04","rl","test","74","img/o_t_diag.png","6","74","color,shape,pattern","23","1",""
"null","82365","HierDyqg24dhka","sub26","02","04","feedback","test","null","","","na","","23","",""
"574.5","82942","HierDyqg24dhka","sub26","02","04","rl","test","83","img/p_t_diag.png","2","83","color,shape,pattern","24","1",""
"null","83945","HierDyqg24dhka","sub26","02","04","feedback","test","null","","","na","","24","",""
"1669.2999999970198","85617","HierDyqg24dhka","sub26","02","04","rl","test","65","img/p_t_check.png","1","65","color,shape,pattern","25","1",""
"null","86629","HierDyqg24dhka","sub26","02","04","feedback","test","null","","","na","","25","",""
"1246.300000011921","87878","HierDyqg24dhka","sub26","02","04","rl","test","75","img/o_d_check.png","7","75","color,shape,pattern","26","1",""
"null","88885","HierDyqg24dhka","sub26","02","04","feedback","test","null","","","na","","26","",""
"460.20000000298023","89348","HierDyqg24dhka","sub26","02","04","rl","test","76","img/o_d_diag.png","8","76","color,shape,pattern","27","1",""
"null","90357","HierDyqg24dhka","sub26","02","04","feedback","test","null","","","na","","27","",""
"776.2000000029802","91136","HierDyqg24dhka","sub26","02","04","rl","test","65","img/p_t_check.png","1","65","color,shape,pattern","28","1",""
"null","92149","HierDyqg24dhka","sub26","02","04","feedback","test","null","","","na","","28","",""
"611.7000000029802","92763","HierDyqg24dhka","sub26","02","04","rl","test","65","img/p_t_check.png","1","65","color,shape,pattern","29","1",""
"null","93773","HierDyqg24dhka","sub26","02","04","feedback","test","null","","","na","","29","",""
"1014.2000000029802","94790","HierDyqg24dhka","sub26","02","04","rl","test","70","img/p_d_diag.png","4","70","color,shape,pattern","30","1",""
"null","95797","HierDyqg24dhka","sub26","02","04","feedback","test","null","","","na","","30","",""
"1026","96826","HierDyqg24dhka","sub26","02","04","rl","test","68","img/p_d_check.png","3","68","color,shape,pattern","31","1",""
"null","97833","HierDyqg24dhka","sub26","02","04","feedback","test","null","","","na","","31","",""
"597.2000000029802","98433","HierDyqg24dhka","sub26","02","04","rl","test","72","img/o_t_check.png","5","72","color,shape,pattern","32","1",""
"null","99445","HierDyqg24dhka","sub26","02","04","feedback","test","null","","","na","","32","",""
"761.8999999910593","100209","HierDyqg24dhka","sub26","02","04","rl","test","75","img/o_d_check.png","7","75","color,shape,pattern","33","1",""
"null","101217","HierDyqg24dhka","sub26","02","04","feedback","test","null","","","na","","33","",""
"846.1000000089407","102066","HierDyqg24dhka","sub26","02","04","rl","test","74","img/o_t_diag.png","6","74","color,shape,pattern","34","1",""
"null","103077","HierDyqg24dhka","sub26","02","04","feedback","test","null","","","na","","34","",""
"1191.5","104271","HierDyqg24dhka","sub26","02","04","rl","test","68","img/p_d_check.png","3","68","color,shape,pattern","35","1",""
"null","105281","HierDyqg24dhka","sub26","02","04","feedback","test","null","","","na","","35","",""
"1548","106831","HierDyqg24dhka","sub26","02","04","rl","test","74","img/o_t_diag.png","6","74","color,shape,pattern","36","1",""
"null","107845","HierDyqg24dhka","sub26","02","04","feedback","test","null","","","na","","36","",""
"1044.800000011921","108892","HierDyqg24dhka","sub26","02","04","rl","test","83","img/p_t_diag.png","2","83","color,shape,pattern","37","1",""
"null","109901","HierDyqg24dhka","sub26","02","04","feedback","test","null","","","na","","37","",""
"823.6000000089407","110727","HierDyqg24dhka","sub26","02","04","rl","test","75","img/o_d_check.png","7","75","color,shape,pattern","38","1",""
"null","111737","HierDyqg24dhka","sub26","02","04","feedback","test","null","","","na","","38","",""
"804.7000000029802","112544","HierDyqg24dhka","sub26","02","04","rl","test","76","img/p_d_diag.png","4","70","color,shape,pattern","39","0",""
"null","113557","HierDyqg24dhka","sub26","02","04","feedback","test","null","","","na","","39","",""
"918.5999999940395","114478","HierDyqg24dhka","sub26","02","04","rl","test","74","img/o_t_check.png","5","72","color,shape,pattern","40","0",""
"null","115485","HierDyqg24dhka","sub26","02","04","feedback","test","null","","","na","","40","",""
"null","117996","HierDyqg24dhka","sub26","02","04","rl","test","null","img/o_d_diag.png","8","76","color,shape,pattern","41","0",""
"null","119005","HierDyqg24dhka","sub26","02","04","feedback","test","null","","","na","","41","",""
"1045.6000000089407","120053","HierDyqg24dhka","sub26","02","04","rl","test","74","img/o_t_diag.png","6","74","color,shape,pattern","42","1",""
"null","121061","HierDyqg24dhka","sub26","02","04","feedback","test","null","","","na","","42","",""
"1572.300000011921","122635","HierDyqg24dhka","sub26","02","04","rl","test","74","img/o_t_diag.png","6","74","color,shape,pattern","43","1",""
"null","123644","HierDyqg24dhka","sub26","02","04","feedback","test","null","","","na","","43","",""
"696.4000000059605","124342","HierDyqg24dhka","sub26","02","04","rl","test","65","img/p_t_check.png","1","65","color,shape,pattern","44","1",""
"null","125353","HierDyqg24dhka","sub26","02","04","feedback","test","null","","","na","","44","",""
"765.8999999910593","126121","HierDyqg24dhka","sub26","02","04","rl","test","70","img/p_d_diag.png","4","70","color,shape,pattern","45","1",""
"null","127133","HierDyqg24dhka","sub26","02","04","feedback","test","null","","","na","","45","",""
"1034.1000000089407","128169","HierDyqg24dhka","sub26","02","04","rl","test","68","img/p_d_check.png","3","68","color,shape,pattern","46","1",""
"null","129181","HierDyqg24dhka","sub26","02","04","feedback","test","null","","","na","","46","",""
"1012.2000000029802","130196","HierDyqg24dhka","sub26","02","04","rl","test","83","img/p_t_diag.png","2","83","color,shape,pattern","47","1",""
"null","131205","HierDyqg24dhka","sub26","02","04","feedback","test","null","","","na","","47","",""
"1021.4000000059605","132229","HierDyqg24dhka","sub26","02","04","rl","test","76","img/o_d_diag.png","8","76","color,shape,pattern","48","1",""
"null","133237","HierDyqg24dhka","sub26","02","04","feedback","test","null","","","na","","48","",""
"641.2999999970198","133880","HierDyqg24dhka","sub26","02","04","rl","test","72","img/o_t_check.png","5","72","color,shape,pattern","49","1",""
"null","134890","HierDyqg24dhka","sub26","02","04","feedback","test","null","","","na","","49","",""
"785.9000000059605","135678","HierDyqg24dhka","sub26","02","04","rl","test","75","img/o_d_check.png","7","75","color,shape,pattern","50","1",""
"null","136685","HierDyqg24dhka","sub26","02","04","feedback","test","null","","","na","","50","",""
"755.7000000029802","137443","HierDyqg24dhka","sub26","02","04","rl","test","72","img/o_t_check.png","5","72","color,shape,pattern","51","1",""
"null","138453","HierDyqg24dhka","sub26","02","04","feedback","test","null","","","na","","51","",""
"948.6999999880791","139404","HierDyqg24dhka","sub26","02","04","rl","test","76","img/o_d_diag.png","8","76","color,shape,pattern","52","1",""
"null","140412","HierDyqg24dhka","sub26","02","04","feedback","test","null","","","na","","52","",""
"1575.199999988079","141989","HierDyqg24dhka","sub26","02","04","rl","test","70","img/p_d_diag.png","4","70","color,shape,pattern","53","1",""
"null","142997","HierDyqg24dhka","sub26","02","04","feedback","test","null","","","na","","53","",""
"984.7000000029802","143984","HierDyqg24dhka","sub26","02","04","rl","test","68","img/p_d_check.png","3","68","color,shape,pattern","54","1",""
"null","144992","HierDyqg24dhka","sub26","02","04","feedback","test","null","","","na","","54","",""
"1403.2999999970198","146398","HierDyqg24dhka","sub26","02","04","rl","test","76","img/o_d_diag.png","8","76","color,shape,pattern","55","1",""
"null","147410","HierDyqg24dhka","sub26","02","04","feedback","test","null","","","na","","55","",""
"612.0999999940395","148025","HierDyqg24dhka","sub26","02","04","rl","test","72","img/o_t_check.png","5","72","color,shape,pattern","56","1",""
"null","149037","HierDyqg24dhka","sub26","02","04","feedback","test","null","","","na","","56","",""
"728.5","149768","HierDyqg24dhka","sub26","02","04","rl","test","65","img/p_t_check.png","1","65","color,shape,pattern","57","1",""
"null","150781","HierDyqg24dhka","sub26","02","04","feedback","test","null","","","na","","57","",""
"1865.5999999940395","152648","HierDyqg24dhka","sub26","02","04","rl","test","74","img/o_t_diag.png","6","74","color,shape,pattern","58","1",""
"null","153661","HierDyqg24dhka","sub26","02","04","feedback","test","null","","","na","","58","",""
"921.0999999940395","154584","HierDyqg24dhka","sub26","02","04","rl","test","83","img/p_t_diag.png","2","83","color,shape,pattern","59","1",""
"null","155597","HierDyqg24dhka","sub26","02","04","feedback","test","null","","","na","","59","",""
"864.7000000029802","156464","HierDyqg24dhka","sub26","02","04","rl","test","83","img/p_t_diag.png","2","83","color,shape,pattern","60","1",""
"null","157473","HierDyqg24dhka","sub26","02","04","feedback","test","null","","","na","","60","",""
"682","158156","HierDyqg24dhka","sub26","02","04","rl","test","65","img/p_t_check.png","1","65","color,shape,pattern","61","1",""
"null","159164","HierDyqg24dhka","sub26","02","04","feedback","test","null","","","na","","61","",""
"null","161677","HierDyqg24dhka","sub26","02","04","rl","test","null","img/p_d_diag.png","4","70","color,shape,pattern","62","0",""
"null","162685","HierDyqg24dhka","sub26","02","04","feedback","test","null","","","na","","62","",""
"1319.7999999970198","164006","HierDyqg24dhka","sub26","02","04","rl","test","75","img/o_d_check.png","7","75","color,shape,pattern","63","1",""
"null","165021","HierDyqg24dhka","sub26","02","04","feedback","test","null","","","na","","63","",""
"1210.7999999970198","166233","HierDyqg24dhka","sub26","02","04","rl","test","68","img/p_d_check.png","3","68","color,shape,pattern","64","1",""
"null","167244","HierDyqg24dhka","sub26","02","04","feedback","test","null","","","na","","64","",""
"694.5999999940395","167941","HierDyqg24dhka","sub26","02","04","rl","test","74","img/o_t_diag.png","6","74","color,shape,pattern","65","1",""
"null","168948","HierDyqg24dhka","sub26","02","04","feedback","test","null","","","na","","65","",""
"679.6000000089407","169630","HierDyqg24dhka","sub26","02","04","rl","test","65","img/p_t_check.png","1","65","color,shape,pattern","66","1",""
"null","170633","HierDyqg24dhka","sub26","02","04","feedback","test","null","","","na","","66","",""
"631.2999999970198","171266","HierDyqg24dhka","sub26","02","04","rl","test","72","img/o_t_check.png","5","72","color,shape,pattern","67","1",""
"null","172276","HierDyqg24dhka","sub26","02","04","feedback","test","null","","","na","","67","",""
"1410.7000000029802","173689","HierDyqg24dhka","sub26","02","04","rl","test","70","img/p_d_diag.png","4","70","color,shape,pattern","68","1",""
"null","174697","HierDyqg24dhka","sub26","02","04","feedback","test","null","","","na","","68","",""
"839.1000000089407","175538","HierDyqg24dhka","sub26","02","04","rl","test","76","img/o_d_diag.png","8","76","color,shape,pattern","69","1",""
"null","176549","HierDyqg24dhka","sub26","02","04","feedback","test","null","","","na","","69","",""
"441.59999999403954","176992","HierDyqg24dhka","sub26","02","04","rl","test","76","img/o_d_diag.png","8","76","color,shape,pattern","70","1",""
"null","177997","HierDyqg24dhka","sub26","02","04","feedback","test","null","","","na","","70","",""
"800.1000000089407","178798","HierDyqg24dhka","sub26","02","04","rl","test","70","img/p_d_diag.png","4","70","color,shape,pattern","71","1",""
"null","179812","HierDyqg24dhka","sub26","02","04","feedback","test","null","","","na","","71","",""
"1232.7000000029802","181047","HierDyqg24dhka","sub26","02","04","rl","test","75","img/o_d_check.png","7","75","color,shape,pattern","72","1",""
"null","182060","HierDyqg24dhka","sub26","02","04","feedback","test","null","","","na","","72","",""
"1156.9000000059605","183219","HierDyqg24dhka","sub26","02","04","rl","test","83","img/p_t_diag.png","2","83","color,shape,pattern","73","1",""
"null","184228","HierDyqg24dhka","sub26","02","04","feedback","test","null","","","na","","73","",""
"1083.9000000059605","185314","HierDyqg24dhka","sub26","02","04","rl","test","68","img/p_d_check.png","3","68","color,shape,pattern","74","1",""
"null","186325","HierDyqg24dhka","sub26","02","04","feedback","test","null","","","na","","74","",""
"918.8999999910593","187246","HierDyqg24dhka","sub26","02","04","rl","test","83","img/p_t_diag.png","2","83","color,shape,pattern","75","1",""
"null","188258","HierDyqg24dhka","sub26","02","04","feedback","test","null","","","na","","75","",""
"679.9000000059605","188940","HierDyqg24dhka","sub26","02","04","rl","test","75","img/o_d_check.png","7","75","color,shape,pattern","76","1",""
"null","189949","HierDyqg24dhka","sub26","02","04","feedback","test","null","","","na","","76","",""
"1155","191106","HierDyqg24dhka","sub26","02","04","rl","test","68","img/p_d_check.png","3","68","color,shape,pattern","77","1",""
"null","192109","HierDyqg24dhka","sub26","02","04","feedback","test","null","","","na","","77","",""
"874.5","192986","HierDyqg24dhka","sub26","02","04","rl","test","72","img/o_t_check.png","5","72","color,shape,pattern","78","1",""
"null","193996","HierDyqg24dhka","sub26","02","04","feedback","test","null","","","na","","78","",""
"2115.8999999910593","196114","HierDyqg24dhka","sub26","02","04","rl","test","74","img/o_t_diag.png","6","74","color,shape,pattern","79","1",""
"null","197123","HierDyqg24dhka","sub26","02","04","feedback","test","null","","","na","","79","",""
"771.0999999940395","197897","HierDyqg24dhka","sub26","02","04","rl","test","68","img/p_t_check.png","1","65","color,shape,pattern","80","0",""
"null","198904","HierDyqg24dhka","sub26","02","04","feedback","test","null","","","na","","80","",""
"1432.800000011921","200339","HierDyqg24dhka","sub26","02","04","rl","test","74","img/o_t_diag.png","6","74","color,shape,pattern","81","1",""
"null","201349","HierDyqg24dhka","sub26","02","04","feedback","test","null","","","na","","81","",""
"936.9000000059605","202288","HierDyqg24dhka","sub26","02","04","rl","test","76","img/o_d_diag.png","8","76","color,shape,pattern","82","1",""
"null","203296","HierDyqg24dhka","sub26","02","04","feedback","test","null","","","na","","82","",""
"1186.7000000029802","204485","HierDyqg24dhka","sub26","02","04","rl","test","68","img/p_d_check.png","3","68","color,shape,pattern","83","1",""
"null","205501","HierDyqg24dhka","sub26","02","04","feedback","test","null","","","na","","83","",""
"812.6000000089407","206315","HierDyqg24dhka","sub26","02","04","rl","test","75","img/o_d_check.png","7","75","color,shape,pattern","84","1",""
"null","207324","HierDyqg24dhka","sub26","02","04","feedback","test","null","","","na","","84","",""
"744.6000000089407","208071","HierDyqg24dhka","sub26","02","04","rl","test","65","img/p_t_check.png","1","65","color,shape,pattern","85","1",""
"null","209084","HierDyqg24dhka","sub26","02","04","feedback","test","null","","","na","","85","",""
"1020.6000000089407","210107","HierDyqg24dhka","sub26","02","04","rl","test","70","img/p_d_diag.png","4","70","color,shape,pattern","86","1",""
"null","211112","HierDyqg24dhka","sub26","02","04","feedback","test","null","","","na","","86","",""
"971.9000000059605","212086","HierDyqg24dhka","sub26","02","04","rl","test","83","img/p_t_diag.png","2","83","color,shape,pattern","87","1",""
"null","213100","HierDyqg24dhka","sub26","02","04","feedback","test","null","","","na","","87","",""
"1169.7999999970198","214272","HierDyqg24dhka","sub26","02","04","rl","test","72","img/o_t_check.png","5","72","color,shape,pattern","88","1",""
"null","215281","HierDyqg24dhka","sub26","02","04","feedback","test","null","","","na","","88","",""
"592.5","215876","HierDyqg24dhka","sub26","02","04","rl","test","72","img/o_t_check.png","5","72","color,shape,pattern","89","1",""
"null","216884","HierDyqg24dhka","sub26","02","04","feedback","test","null","","","na","","89","",""
"770.5","217657","HierDyqg24dhka","sub26","02","04","rl","test","68","img/p_d_check.png","3","68","color,shape,pattern","90","1",""
"null","218668","HierDyqg24dhka","sub26","02","04","feedback","test","null","","","na","","90","",""
"681.1000000089407","219351","HierDyqg24dhka","sub26","02","04","rl","test","68","img/o_d_check.png","7","75","color,shape,pattern","91","0",""
"null","220364","HierDyqg24dhka","sub26","02","04","feedback","test","null","","","na","","91","",""
"984.2000000029802","221351","HierDyqg24dhka","sub26","02","04","rl","test","83","img/p_t_diag.png","2","83","color,shape,pattern","92","1",""
"null","222364","HierDyqg24dhka","sub26","02","04","feedback","test","null","","","na","","92","",""
"1006.2999999970198","223373","HierDyqg24dhka","sub26","02","04","rl","test","76","img/o_d_diag.png","8","76","color,shape,pattern","93","1",""
"null","224380","HierDyqg24dhka","sub26","02","04","feedback","test","null","","","na","","93","",""
"635.5","225018","HierDyqg24dhka","sub26","02","04","rl","test","65","img/p_t_check.png","1","65","color,shape,pattern","94","1",""
"null","226024","HierDyqg24dhka","sub26","02","04","feedback","test","null","","","na","","94","",""
"1416.1000000089407","227443","HierDyqg24dhka","sub26","02","04","rl","test","74","img/o_t_diag.png","6","74","color,shape,pattern","95","1",""
"null","228452","HierDyqg24dhka","sub26","02","04","feedback","test","null","","","na","","95","",""
"1050.7000000029802","229505","HierDyqg24dhka","sub26","02","04","rl","test","65","img/p_t_check.png","1","65","color,shape,pattern","96","1",""
"null","230516","HierDyqg24dhka","sub26","02","04","feedback","test","null","","","na","","96","",""
"1140.2999999970198","231658","HierDyqg24dhka","sub26","02","04","rl","test","70","img/p_d_diag.png","4","70","color,shape,pattern","97","1",""
"null","232668","HierDyqg24dhka","sub26","02","04","feedback","test","null","","","na","","97","",""
"809.2000000029802","233479","HierDyqg24dhka","sub26","02","04","rl","test","68","img/p_d_check.png","3","68","color,shape,pattern","98","1",""
"null","234492","HierDyqg24dhka","sub26","02","04","feedback","test","null","","","na","","98","",""
"1210.7000000029802","235703","HierDyqg24dhka","sub26","02","04","rl","test","74","img/o_t_diag.png","6","74","color,shape,pattern","99","1",""
"null","236716","HierDyqg24dhka","sub26","02","04","feedback","test","null","","","na","","99","",""
"1755.9000000059605","238473","HierDyqg24dhka","sub26","02","04","rl","test","70","img/p_d_diag.png","4","70","color,shape,pattern","100","1",""
"null","239483","HierDyqg24dhka","sub26","02","04","feedback","test","null","","","na","","100","",""
"1754.0999999940395","241239","HierDyqg24dhka","sub26","02","04","rl","test","74","img/o_d_diag.png","8","76","color,shape,pattern","101","0",""
"null","242252","HierDyqg24dhka","sub26","02","04","feedback","test","null","","","na","","101","",""
"1090.2000000029802","243344","HierDyqg24dhka","sub26","02","04","rl","test","72","img/o_t_check.png","5","72","color,shape,pattern","102","1",""
"null","244356","HierDyqg24dhka","sub26","02","04","feedback","test","null","","","na","","102","",""
"1062.0999999940395","245420","HierDyqg24dhka","sub26","02","04","rl","test","72","img/o_t_check.png","5","72","color,shape,pattern","103","1",""
"null","246427","HierDyqg24dhka","sub26","02","04","feedback","test","null","","","na","","103","",""
"970.9000000059605","247400","HierDyqg24dhka","sub26","02","04","rl","test","68","img/p_d_check.png","3","68","color,shape,pattern","104","1",""
"null","248409","HierDyqg24dhka","sub26","02","04","feedback","test","null","","","na","","104","",""
"745.2999999970198","249156","HierDyqg24dhka","sub26","02","04","rl","test","83","img/p_t_diag.png","2","83","color,shape,pattern","105","1",""
"null","250164","HierDyqg24dhka","sub26","02","04","feedback","test","null","","","na","","105","",""
"1217.699999988079","251384","HierDyqg24dhka","sub26","02","04","rl","test","75","img/o_d_check.png","7","75","color,shape,pattern","106","1",""
"null","252396","HierDyqg24dhka","sub26","02","04","feedback","test","null","","","na","","106","",""
"1192.3999999910593","253591","HierDyqg24dhka","sub26","02","04","rl","test","83","img/p_t_diag.png","2","83","color,shape,pattern","107","1",""
"null","254604","HierDyqg24dhka","sub26","02","04","feedback","test","null","","","na","","107","",""
"753.2999999970198","255359","HierDyqg24dhka","sub26","02","04","rl","test","65","img/p_t_check.png","1","65","color,shape,pattern","108","1",""
"null","256372","HierDyqg24dhka","sub26","02","04","feedback","test","null","","","na","","108","",""
"822.1000000089407","257196","HierDyqg24dhka","sub26","02","04","rl","test","75","img/o_d_check.png","7","75","color,shape,pattern","109","1",""
"null","258204","HierDyqg24dhka","sub26","02","04","feedback","test","null","","","na","","109","",""
"1854.9000000059605","260061","HierDyqg24dhka","sub26","02","04","rl","test","76","img/o_d_diag.png","8","76","color,shape,pattern","110","1",""
"null","261071","HierDyqg24dhka","sub26","02","04","feedback","test","null","","","na","","110","",""
"2165.2999999970198","263239","HierDyqg24dhka","sub26","02","04","rl","test","70","img/p_d_diag.png","4","70","color,shape,pattern","111","1",""
"null","264252","HierDyqg24dhka","sub26","02","04","feedback","test","null","","","na","","111","",""
"1012.7000000029802","265267","HierDyqg24dhka","sub26","02","04","rl","test","70","img/p_d_diag.png","4","70","color,shape,pattern","112","1",""
"null","266272","HierDyqg24dhka","sub26","02","04","feedback","test","null","","","na","","112","",""
"941.7000000029802","267216","HierDyqg24dhka","sub26","02","04","rl","test","74","img/o_t_diag.png","6","74","color,shape,pattern","113","1",""
"null","268228","HierDyqg24dhka","sub26","02","04","feedback","test","null","","","na","","113","",""
"702.6000000089407","268932","HierDyqg24dhka","sub26","02","04","rl","test","65","img/p_t_check.png","1","65","color,shape,pattern","114","1",""
"null","269936","HierDyqg24dhka","sub26","02","04","feedback","test","null","","","na","","114","",""
"751.3000000119209","270690","HierDyqg24dhka","sub26","02","04","rl","test","76","img/o_d_diag.png","8","76","color,shape,pattern","115","1",""
"null","271697","HierDyqg24dhka","sub26","02","04","feedback","test","null","","","na","","115","",""
"705.3999999910593","272404","HierDyqg24dhka","sub26","02","04","rl","test","75","img/o_d_check.png","7","75","color,shape,pattern","116","1",""
"null","273409","HierDyqg24dhka","sub26","02","04","feedback","test","null","","","na","","116","",""
"1038.300000011921","274449","HierDyqg24dhka","sub26","02","04","rl","test","83","img/p_t_diag.png","2","83","color,shape,pattern","117","1",""
"null","275459","HierDyqg24dhka","sub26","02","04","feedback","test","null","","","na","","117","",""
"773.5","276234","HierDyqg24dhka","sub26","02","04","rl","test","72","img/o_t_check.png","5","72","color,shape,pattern","118","1",""
"null","277244","HierDyqg24dhka","sub26","02","04","feedback","test","null","","","na","","118","",""
"1054.9000000059605","278301","HierDyqg24dhka","sub26","02","04","rl","test","68","img/p_d_check.png","3","68","color,shape,pattern","119","1",""
"null","279316","HierDyqg24dhka","sub26","02","04","feedback","test","null","","","na","","119","",""
"969.1999999880791","280287","HierDyqg24dhka","sub26","02","04","rl","test","74","img/o_t_diag.png","6","74","color,shape,pattern","120","1",""
"null","281300","HierDyqg24dhka","sub26","02","04","feedback","test","null","","","na","","120","",""
"1517.7000000029802","282820","HierDyqg24dhka","sub26","02","04","rl","test","83","img/p_t_diag.png","2","83","color,shape,pattern","121","1",""
"null","283827","HierDyqg24dhka","sub26","02","04","feedback","test","null","","","na","","121","",""
"527.8999999910593","284356","HierDyqg24dhka","sub26","02","04","rl","test","65","img/p_t_check.png","1","65","color,shape,pattern","122","1",""
"null","285364","HierDyqg24dhka","sub26","02","04","feedback","test","null","","","na","","122","",""
"791.3999999910593","286157","HierDyqg24dhka","sub26","02","04","rl","test","72","img/o_t_check.png","5","72","color,shape,pattern","123","1",""
"null","287172","HierDyqg24dhka","sub26","02","04","feedback","test","null","","","na","","123","",""
"845.5999999940395","288019","HierDyqg24dhka","sub26","02","04","rl","test","76","img/o_d_diag.png","8","76","color,shape,pattern","124","1",""
"null","289028","HierDyqg24dhka","sub26","02","04","feedback","test","null","","","na","","124","",""
"666.0999999940395","289695","HierDyqg24dhka","sub26","02","04","rl","test","70","img/p_d_diag.png","4","70","color,shape,pattern","125","1",""
"null","290708","HierDyqg24dhka","sub26","02","04","feedback","test","null","","","na","","125","",""
"949","291659","HierDyqg24dhka","sub26","02","04","rl","test","74","img/o_t_diag.png","6","74","color,shape,pattern","126","1",""
"null","292668","HierDyqg24dhka","sub26","02","04","feedback","test","null","","","na","","126","",""
"657.5999999940395","293327","HierDyqg24dhka","sub26","02","04","rl","test","65","img/o_t_check.png","5","72","color,shape,pattern","127","0",""
"null","294336","HierDyqg24dhka","sub26","02","04","feedback","test","null","","","na","","127","",""
"1259.7000000029802","295597","HierDyqg24dhka","sub26","02","04","rl","test","75","img/o_d_check.png","7","75","color,shape,pattern","128","1",""
"null","296612","HierDyqg24dhka","sub26","02","04","feedback","test","null","","","na","","128","",""
"837.1000000089407","297451","HierDyqg24dhka","sub26","02","04","rl","test","68","img/p_d_check.png","3","68","color,shape,pattern","129","1",""
"null","298457","HierDyqg24dhka","sub26","02","04","feedback","test","null","","","na","","129","",""
"712.1999999880791","299172","HierDyqg24dhka","sub26","02","04","rl","test","68","img/p_d_check.png","3","68","color,shape,pattern","130","1",""
"null","300180","HierDyqg24dhka","sub26","02","04","feedback","test","null","","","na","","130","",""
"891","301072","HierDyqg24dhka","sub26","02","04","rl","test","75","img/o_d_check.png","7","75","color,shape,pattern","131","1",""
"null","302083","HierDyqg24dhka","sub26","02","04","feedback","test","null","","","na","","131","",""
"623.9000000059605","302709","HierDyqg24dhka","sub26","02","04","rl","test","65","img/p_t_check.png","1","65","color,shape,pattern","132","1",""
"null","303715","HierDyqg24dhka","sub26","02","04","feedback","test","null","","","na","","132","",""
"1734.4000000059605","305451","HierDyqg24dhka","sub26","02","04","rl","test","76","img/o_d_diag.png","8","76","color,shape,pattern","133","1",""
"null","306459","HierDyqg24dhka","sub26","02","04","feedback","test","null","","","na","","133","",""
"1563.7000000029802","308025","HierDyqg24dhka","sub26","02","04","rl","test","83","img/p_t_diag.png","2","83","color,shape,pattern","134","1",""
"null","309035","HierDyqg24dhka","sub26","02","04","feedback","test","null","","","na","","134","",""
"1548.4000000059605","310586","HierDyqg24dhka","sub26","02","04","rl","test","76","img/o_d_diag.png","8","76","color,shape,pattern","135","1",""
"null","311594","HierDyqg24dhka","sub26","02","04","feedback","test","null","","","na","","135","",""
"891.6000000089407","312487","HierDyqg24dhka","sub26","02","04","rl","test","70","img/p_d_diag.png","4","70","color,shape,pattern","136","1",""
"null","313495","HierDyqg24dhka","sub26","02","04","feedback","test","null","","","na","","136","",""
"1330.2000000029802","314828","HierDyqg24dhka","sub26","02","04","rl","test","68","img/p_d_check.png","3","68","color,shape,pattern","137","1",""
"null","315835","HierDyqg24dhka","sub26","02","04","feedback","test","null","","","na","","137","",""
"964.8999999910593","316803","HierDyqg24dhka","sub26","02","04","rl","test","74","img/o_t_diag.png","6","74","color,shape,pattern","138","1",""
"null","317808","HierDyqg24dhka","sub26","02","04","feedback","test","null","","","na","","138","",""
"972.2000000029802","318782","HierDyqg24dhka","sub26","02","04","rl","test","75","img/o_d_check.png","7","75","color,shape,pattern","139","1",""
"null","319795","HierDyqg24dhka","sub26","02","04","feedback","test","null","","","na","","139","",""
"966.6000000089407","320764","HierDyqg24dhka","sub26","02","04","rl","test","70","img/p_d_diag.png","4","70","color,shape,pattern","140","1",""
"null","321771","HierDyqg24dhka","sub26","02","04","feedback","test","null","","","na","","140","",""
"884.7999999970198","322657","HierDyqg24dhka","sub26","02","04","rl","test","72","img/o_t_check.png","5","72","color,shape,pattern","141","1",""
"null","323663","HierDyqg24dhka","sub26","02","04","feedback","test","null","","","na","","141","",""
"739.5999999940395","324405","HierDyqg24dhka","sub26","02","04","rl","test","83","img/p_t_diag.png","2","83","color,shape,pattern","142","1",""
"null","325419","HierDyqg24dhka","sub26","02","04","feedback","test","null","","","na","","142","",""
"725.9000000059605","326147","HierDyqg24dhka","sub26","02","04","rl","test","74","img/o_t_diag.png","6","74","color,shape,pattern","143","1",""
"null","327155","HierDyqg24dhka","sub26","02","04","feedback","test","null","","","na","","143","",""
"573.5","327731","HierDyqg24dhka","sub26","02","04","rl","test","65","img/p_t_check.png","1","65","color,shape,pattern","144","1",""
"null","328735","HierDyqg24dhka","sub26","02","04","feedback","test","null","","","na","","144","",""
"788.7000000029802","329526","HierDyqg24dhka","sub26","02","04","rl","test","74","img/o_t_diag.png","6","74","color,shape,pattern","145","1",""
"null","330535","HierDyqg24dhka","sub26","02","04","feedback","test","null","","","na","","145","",""
"725.6000000089407","331263","HierDyqg24dhka","sub26","02","04","rl","test","70","img/p_d_diag.png","4","70","color,shape,pattern","146","1",""
"null","332275","HierDyqg24dhka","sub26","02","04","feedback","test","null","","","na","","146","",""
"915.8999999910593","333194","HierDyqg24dhka","sub26","02","04","rl","test","65","img/p_t_check.png","1","65","color,shape,pattern","147","1",""
"null","334199","HierDyqg24dhka","sub26","02","04","feedback","test","null","","","na","","147","",""
"662.0999999940395","334864","HierDyqg24dhka","sub26","02","04","rl","test","76","img/o_d_diag.png","8","76","color,shape,pattern","148","1",""
"null","335875","HierDyqg24dhka","sub26","02","04","feedback","test","null","","","na","","148","",""
"819.9000000059605","336697","HierDyqg24dhka","sub26","02","04","rl","test","83","img/p_t_diag.png","2","83","color,shape,pattern","149","1",""
"null","337707","HierDyqg24dhka","sub26","02","04","feedback","test","null","","","na","","149","",""
"969.2999999970198","338679","HierDyqg24dhka","sub26","02","04","rl","test","75","img/o_d_check.png","7","75","color,shape,pattern","150","1",""
"null","339691","HierDyqg24dhka","sub26","02","04","feedback","test","null","","","na","","150","",""
"847","340541","HierDyqg24dhka","sub26","02","04","rl","test","68","img/p_d_check.png","3","68","color,shape,pattern","151","1",""
"null","341555","HierDyqg24dhka","sub26","02","04","feedback","test","null","","","na","","151","",""
"818.7999999970198","342377","HierDyqg24dhka","sub26","02","04","rl","test","68","img/p_d_check.png","3","68","color,shape,pattern","152","1",""
"null","343387","HierDyqg24dhka","sub26","02","04","feedback","test","null","","","na","","152","",""
"1418.8999999910593","344809","HierDyqg24dhka","sub26","02","04","rl","test","76","img/o_d_diag.png","8","76","color,shape,pattern","153","1",""
"null","345819","HierDyqg24dhka","sub26","02","04","feedback","test","null","","","na","","153","",""
"1424.699999988079","347246","HierDyqg24dhka","sub26","02","04","rl","test","75","img/o_d_check.png","7","75","color,shape,pattern","154","1",""
"null","348259","HierDyqg24dhka","sub26","02","04","feedback","test","null","","","na","","154","",""
"1456.2999999970198","349718","HierDyqg24dhka","sub26","02","04","rl","test","72","img/o_t_check.png","5","72","color,shape,pattern","155","1",""
"null","350726","HierDyqg24dhka","sub26","02","04","feedback","test","null","","","na","","155","",""
"924.5","351653","HierDyqg24dhka","sub26","02","04","rl","test","65","img/p_t_check.png","1","65","color,shape,pattern","156","1",""
"null","352667","HierDyqg24dhka","sub26","02","04","feedback","test","null","","","na","","156","",""
"871.2999999970198","353541","HierDyqg24dhka","sub26","02","04","rl","test","72","img/o_t_check.png","5","72","color,shape,pattern","157","1",""
"null","354555","HierDyqg24dhka","sub26","02","04","feedback","test","null","","","na","","157","",""
"1640.7999999970198","356198","HierDyqg24dhka","sub26","02","04","rl","test","75","img/o_t_diag.png","6","74","color,shape,pattern","158","0",""
"null","357209","HierDyqg24dhka","sub26","02","04","feedback","test","null","","","na","","158","",""
"926.9000000059605","358138","HierDyqg24dhka","sub26","02","04","rl","test","83","img/p_t_diag.png","2","83","color,shape,pattern","159","1",""
"null","359147","HierDyqg24dhka","sub26","02","04","feedback","test","null","","","na","","159","",""
"1871.9000000059605","361021","HierDyqg24dhka","sub26","02","04","rl","test","70","img/p_d_diag.png","4","70","color,shape,pattern","160","1",""
"null","362032","HierDyqg24dhka","sub26","02","04","feedback","test","null","","","na","","160","",""
"725.3000000119209","362760","HierDyqg24dhka","sub26","02","04","rl","test","70","img/p_d_diag.png","4","70","color,shape,pattern","161","1",""
"null","363771","HierDyqg24dhka","sub26","02","04","feedback","test","null","","","na","","161","",""
"1258.5","365032","HierDyqg24dhka","sub26","02","04","rl","test","83","img/p_t_diag.png","2","83","color,shape,pattern","162","1",""
"null","366043","HierDyqg24dhka","sub26","02","04","feedback","test","null","","","na","","162","",""
"975.5999999940395","367021","HierDyqg24dhka","sub26","02","04","rl","test","72","img/o_t_check.png","5","72","color,shape,pattern","163","1",""
"null","368035","HierDyqg24dhka","sub26","02","04","feedback","test","null","","","na","","163","",""
"885.5","368923","HierDyqg24dhka","sub26","02","04","rl","test","68","img/p_d_check.png","3","68","color,shape,pattern","164","1",""
"null","369927","HierDyqg24dhka","sub26","02","04","feedback","test","null","","","na","","164","",""
"1138.5999999940395","371067","HierDyqg24dhka","sub26","02","04","rl","test","74","img/o_t_diag.png","6","74","color,shape,pattern","165","1",""
"null","372075","HierDyqg24dhka","sub26","02","04","feedback","test","null","","","na","","165","",""
"646.6999999880791","372723","HierDyqg24dhka","sub26","02","04","rl","test","65","img/p_t_check.png","1","65","color,shape,pattern","166","1",""
"null","373730","HierDyqg24dhka","sub26","02","04","feedback","test","null","","","na","","166","",""
"491.70000000298023","374223","HierDyqg24dhka","sub26","02","04","rl","test","65","img/p_t_check.png","1","65","color,shape,pattern","167","1",""
"null","375235","HierDyqg24dhka","sub26","02","04","feedback","test","null","","","na","","167","",""
"614.8999999910593","375852","HierDyqg24dhka","sub26","02","04","rl","test","76","img/o_d_diag.png","8","76","color,shape,pattern","168","1",""
"null","376865","HierDyqg24dhka","sub26","02","04","feedback","test","null","","","na","","168","",""
"724","377591","HierDyqg24dhka","sub26","02","04","rl","test","75","img/o_d_check.png","7","75","color,shape,pattern","169","1",""
"null","378603","HierDyqg24dhka","sub26","02","04","feedback","test","null","","","na","","169","",""
"812.0999999940395","379417","HierDyqg24dhka","sub26","02","04","rl","test","74","img/o_t_diag.png","6","74","color,shape,pattern","170","1",""
"null","380423","HierDyqg24dhka","sub26","02","04","feedback","test","null","","","na","","170","",""
"569.1999999880791","380995","HierDyqg24dhka","sub26","02","04","rl","test","72","img/o_t_check.png","5","72","color,shape,pattern","171","1",""
"null","381998","HierDyqg24dhka","sub26","02","04","feedback","test","null","","","na","","171","",""
"593.3000000119209","382594","HierDyqg24dhka","sub26","02","04","rl","test","76","img/o_d_diag.png","8","76","color,shape,pattern","172","1",""
"null","383599","HierDyqg24dhka","sub26","02","04","feedback","test","null","","","na","","172","",""
"676.1000000089407","384278","HierDyqg24dhka","sub26","02","04","rl","test","68","img/p_d_check.png","3","68","color,shape,pattern","173","1",""
"null","385287","HierDyqg24dhka","sub26","02","04","feedback","test","null","","","na","","173","",""
"578.8999999910593","385868","HierDyqg24dhka","sub26","02","04","rl","test","76","img/o_d_diag.png","8","76","color,shape,pattern","174","1",""
"null","386883","HierDyqg24dhka","sub26","02","04","feedback","test","null","","","na","","174","",""
"710.7999999970198","387596","HierDyqg24dhka","sub26","02","04","rl","test","75","img/o_d_check.png","7","75","color,shape,pattern","175","1",""
"null","388611","HierDyqg24dhka","sub26","02","04","feedback","test","null","","","na","","175","",""
"716.5999999940395","389330","HierDyqg24dhka","sub26","02","04","rl","test","70","img/p_d_diag.png","4","70","color,shape,pattern","176","1",""
"null","390335","HierDyqg24dhka","sub26","02","04","feedback","test","null","","","na","","176","",""
"648.6000000089407","390986","HierDyqg24dhka","sub26","02","04","rl","test","83","img/p_t_diag.png","2","83","color,shape,pattern","177","1",""
"null","391995","HierDyqg24dhka","sub26","02","04","feedback","test","null","","","na","","177","",""
"1121.0999999940395","393118","HierDyqg24dhka","sub26","02","04","rl","test","75","img/o_d_check.png","7","75","color,shape,pattern","178","1",""
"null","394131","HierDyqg24dhka","sub26","02","04","feedback","test","null","","","na","","178","",""
"616.7999999970198","394750","HierDyqg24dhka","sub26","02","04","rl","test","72","img/o_t_check.png","5","72","color,shape,pattern","179","1",""
"null","395763","HierDyqg24dhka","sub26","02","04","feedback","test","null","","","na","","179","",""
"807.7999999970198","396573","HierDyqg24dhka","sub26","02","04","rl","test","68","img/p_d_check.png","3","68","color,shape,pattern","180","1",""
"null","397587","HierDyqg24dhka","sub26","02","04","feedback","test","null","","","na","","180","",""
"1221","398810","HierDyqg24dhka","sub26","02","04","rl","test","74","img/o_t_diag.png","6","74","color,shape,pattern","181","1",""
"null","399819","HierDyqg24dhka","sub26","02","04","feedback","test","null","","","na","","181","",""
"508.09999999403954","400329","HierDyqg24dhka","sub26","02","04","rl","test","72","img/p_t_check.png","1","65","color,shape,pattern","182","0",""
"null","401335","HierDyqg24dhka","sub26","02","04","feedback","test","null","","","na","","182","",""
"670.3999999910593","402007","HierDyqg24dhka","sub26","02","04","rl","test","83","img/p_t_diag.png","2","83","color,shape,pattern","183","1",""
"null","403015","HierDyqg24dhka","sub26","02","04","feedback","test","null","","","na","","183","",""
"887.4000000059605","403905","HierDyqg24dhka","sub26","02","04","rl","test","72","img/o_t_check.png","5","72","color,shape,pattern","184","1",""
"null","404915","HierDyqg24dhka","sub26","02","04","feedback","test","null","","","na","","184","",""
"761.6000000089407","405678","HierDyqg24dhka","sub26","02","04","rl","test","70","img/p_d_diag.png","4","70","color,shape,pattern","185","1",""
"null","406687","HierDyqg24dhka","sub26","02","04","feedback","test","null","","","na","","185","",""
"1224.4000000059605","407913","HierDyqg24dhka","sub26","02","04","rl","test","65","img/p_t_check.png","1","65","color,shape,pattern","186","1",""
"null","408923","HierDyqg24dhka","sub26","02","04","feedback","test","null","","","na","","186","",""
"1251.7000000029802","410176","HierDyqg24dhka","sub26","02","04","rl","test","70","img/p_d_diag.png","4","70","color,shape,pattern","187","1",""
"null","411185","HierDyqg24dhka","sub26","02","04","feedback","test","null","","","na","","187","",""
"692.1000000089407","411879","HierDyqg24dhka","sub26","02","04","rl","test","76","img/o_d_diag.png","8","76","color,shape,pattern","188","1",""
"null","412887","HierDyqg24dhka","sub26","02","04","feedback","test","null","","","na","","188","",""
"589.1999999880791","413479","HierDyqg24dhka","sub26","02","04","rl","test","72","img/o_d_check.png","7","75","color,shape,pattern","189","0",""
"null","414487","HierDyqg24dhka","sub26","02","04","feedback","test","null","","","na","","189","",""
"752.8999999910593","415242","HierDyqg24dhka","sub26","02","04","rl","test","68","img/p_d_check.png","3","68","color,shape,pattern","190","1",""
"null","416247","HierDyqg24dhka","sub26","02","04","feedback","test","null","","","na","","190","",""
"569.6000000089407","416818","HierDyqg24dhka","sub26","02","04","rl","test","68","img/p_d_check.png","3","68","color,shape,pattern","191","1",""
"null","417826","HierDyqg24dhka","sub26","02","04","feedback","test","null","","","na","","191","",""
"764.1000000089407","418592","HierDyqg24dhka","sub26","02","04","rl","test","74","img/o_t_diag.png","6","74","color,shape,pattern","192","1",""
"null","419599","HierDyqg24dhka","sub26","02","04","feedback","test","null","","","na","","192","",""
"1380.7000000029802","420982","HierDyqg24dhka","sub26","02","04","rl","test","83","img/p_t_diag.png","2","83","color,shape,pattern","193","1",""
"null","421995","HierDyqg24dhka","sub26","02","04","feedback","test","null","","","na","","193","",""
"796.1999999880791","422793","HierDyqg24dhka","sub26","02","04","rl","test","65","img/p_t_check.png","1","65","color,shape,pattern","194","1",""
"null","423803","HierDyqg24dhka","sub26","02","04","feedback","test","null","","","na","","194","",""
"844.3999999910593","424649","HierDyqg24dhka","sub26","02","04","rl","test","74","img/o_t_diag.png","6","74","color,shape,pattern","195","1",""
"null","425654","HierDyqg24dhka","sub26","02","04","feedback","test","null","","","na","","195","",""
"644.4000000059605","426300","HierDyqg24dhka","sub26","02","04","rl","test","72","img/o_t_check.png","5","72","color,shape,pattern","196","1",""
"null","427314","HierDyqg24dhka","sub26","02","04","feedback","test","null","","","na","","196","",""
"888.5999999940395","428205","HierDyqg24dhka","sub26","02","04","rl","test","70","img/p_d_diag.png","4","70","color,shape,pattern","197","1",""
"null","429218","HierDyqg24dhka","sub26","02","04","feedback","test","null","","","na","","197","",""
"658.7999999970198","429880","HierDyqg24dhka","sub26","02","04","rl","test","83","img/p_t_diag.png","2","83","color,shape,pattern","198","1",""
"null","430887","HierDyqg24dhka","sub26","02","04","feedback","test","null","","","na","","198","",""
"1012.3999999910593","431902","HierDyqg24dhka","sub26","02","04","rl","test","76","img/o_d_diag.png","8","76","color,shape,pattern","199","1",""
"null","432911","HierDyqg24dhka","sub26","02","04","feedback","test","null","","","na","","199","",""
"639.7999999970198","433553","HierDyqg24dhka","sub26","02","04","rl","test","65","img/p_t_check.png","1","65","color,shape,pattern","200","1",""
"null","434558","HierDyqg24dhka","sub26","02","04","feedback","test","null","","","na","","200","",""
"734.7999999970198","435294","HierDyqg24dhka","sub26","02","04","rl","test","75","img/o_d_check.png","7","75","color,shape,pattern","201","1",""
"null","436302","HierDyqg24dhka","sub26","02","04","feedback","test","null","","","na","","201","",""
"567.9000000059605","436872","HierDyqg24dhka","sub26","02","04","rl","test","75","img/o_d_check.png","7","75","color,shape,pattern","202","1",""
"null","437881","HierDyqg24dhka","sub26","02","04","feedback","test","null","","","na","","202","",""
"1133.699999988079","439016","HierDyqg24dhka","sub26","02","04","rl","test","76","img/o_d_diag.png","8","76","color,shape,pattern","203","1",""
"null","440026","HierDyqg24dhka","sub26","02","04","feedback","test","null","","","na","","203","",""
"1381.5999999940395","441410","HierDyqg24dhka","sub26","02","04","rl","test","68","img/p_d_check.png","3","68","color,shape,pattern","204","1",""
"null","442418","HierDyqg24dhka","sub26","02","04","feedback","test","null","","","na","","204","",""
"539.0999999940395","442959","HierDyqg24dhka","sub26","02","04","rl","test","72","img/o_t_check.png","5","72","color,shape,pattern","205","1",""
"null","443970","HierDyqg24dhka","sub26","02","04","feedback","test","null","","","na","","205","",""
"919.3999999910593","444892","HierDyqg24dhka","sub26","02","04","rl","test","83","img/p_t_diag.png","2","83","color,shape,pattern","206","1",""
"null","445894","HierDyqg24dhka","sub26","02","04","feedback","test","null","","","na","","206","",""
"1006.3999999910593","446902","HierDyqg24dhka","sub26","02","04","rl","test","72","img/o_t_check.png","5","72","color,shape,pattern","207","1",""
"null","447906","HierDyqg24dhka","sub26","02","04","feedback","test","null","","","na","","207","",""
"824","448732","HierDyqg24dhka","sub26","02","04","rl","test","74","img/o_t_diag.png","6","74","color,shape,pattern","208","1",""
"null","449742","HierDyqg24dhka","sub26","02","04","feedback","test","null","","","na","","208","",""
"648.4000000059605","450392","HierDyqg24dhka","sub26","02","04","rl","test","75","img/o_d_check.png","7","75","color,shape,pattern","209","1",""
"null","451402","HierDyqg24dhka","sub26","02","04","feedback","test","null","","","na","","209","",""
"1001.3000000119209","452406","HierDyqg24dhka","sub26","02","04","rl","test","70","img/p_d_diag.png","4","70","color,shape,pattern","210","1",""
"null","453418","HierDyqg24dhka","sub26","02","04","feedback","test","null","","","na","","210","",""
"928.8999999910593","454350","HierDyqg24dhka","sub26","02","04","rl","test","74","img/o_t_diag.png","6","74","color,shape,pattern","211","1",""
"null","455358","HierDyqg24dhka","sub26","02","04","feedback","test","null","","","na","","211","",""
"1721.7999999970198","457083","HierDyqg24dhka","sub26","02","04","rl","test","76","img/o_d_diag.png","8","76","color,shape,pattern","212","1",""
"null","458090","HierDyqg24dhka","sub26","02","04","feedback","test","null","","","na","","212","",""
"642.7999999970198","458736","HierDyqg24dhka","sub26","02","04","rl","test","70","img/p_d_diag.png","4","70","color,shape,pattern","213","1",""
"null","459746","HierDyqg24dhka","sub26","02","04","feedback","test","null","","","na","","213","",""
"628.0999999940395","460377","HierDyqg24dhka","sub26","02","04","rl","test","65","img/p_t_check.png","1","65","color,shape,pattern","214","1",""
"null","461382","HierDyqg24dhka","sub26","02","04","feedback","test","null","","","na","","214","",""
"712.0999999940395","462096","HierDyqg24dhka","sub26","02","04","rl","test","70","img/p_d_diag.png","4","70","color,shape,pattern","215","1",""
"null","463103","HierDyqg24dhka","sub26","02","04","feedback","test","null","","","na","","215","",""
"1089.9000000059605","464195","HierDyqg24dhka","sub26","02","04","rl","test","68","img/p_d_check.png","3","68","color,shape,pattern","216","1",""
"null","465208","HierDyqg24dhka","sub26","02","04","feedback","test","null","","","na","","216","",""
"499.40000000596046","465710","HierDyqg24dhka","sub26","02","04","rl","test","68","img/p_d_check.png","3","68","color,shape,pattern","217","1",""
"null","466720","HierDyqg24dhka","sub26","02","04","feedback","test","null","","","na","","217","",""
"567.1000000089407","467289","HierDyqg24dhka","sub26","02","04","rl","test","65","img/p_t_check.png","1","65","color,shape,pattern","218","1",""
"null","468298","HierDyqg24dhka","sub26","02","04","feedback","test","null","","","na","","218","",""
"696.4000000059605","468997","HierDyqg24dhka","sub26","02","04","rl","test","83","img/p_t_diag.png","2","83","color,shape,pattern","219","1",""
"null","470010","HierDyqg24dhka","sub26","02","04","feedback","test","null","","","na","","219","",""
"874","470886","HierDyqg24dhka","sub26","02","04","rl","test","83","img/p_t_diag.png","2","83","color,shape,pattern","220","1",""
"null","471894","HierDyqg24dhka","sub26","02","04","feedback","test","null","","","na","","220","",""
"966.2999999970198","472863","HierDyqg24dhka","sub26","02","04","rl","test","72","img/o_t_check.png","5","72","color,shape,pattern","221","1",""
"null","473870","HierDyqg24dhka","sub26","02","04","feedback","test","null","","","na","","221","",""
"628.2999999970198","474501","HierDyqg24dhka","sub26","02","04","rl","test","76","img/o_d_diag.png","8","76","color,shape,pattern","222","1",""
"null","475514","HierDyqg24dhka","sub26","02","04","feedback","test","null","","","na","","222","",""
"619.5","476135","HierDyqg24dhka","sub26","02","04","rl","test","75","img/o_d_check.png","7","75","color,shape,pattern","223","1",""
"null","477146","HierDyqg24dhka","sub26","02","04","feedback","test","null","","","na","","223","",""
"570.5999999940395","477719","HierDyqg24dhka","sub26","02","04","rl","test","65","img/p_t_check.png","1","65","color,shape,pattern","224","1",""
"null","478730","HierDyqg24dhka","sub26","02","04","feedback","test","null","","","na","","224","",""
"669","479401","HierDyqg24dhka","sub26","02","04","rl","test","83","img/p_t_diag.png","2","83","color,shape,pattern","225","1",""
"null","480407","HierDyqg24dhka","sub26","02","04","feedback","test","null","","","na","","225","",""
"839.0999999940395","481248","HierDyqg24dhka","sub26","02","04","rl","test","74","img/o_t_diag.png","6","74","color,shape,pattern","226","1",""
"null","482258","HierDyqg24dhka","sub26","02","04","feedback","test","null","","","na","","226","",""
"673.1000000089407","482934","HierDyqg24dhka","sub26","02","04","rl","test","72","img/o_t_check.png","5","72","color,shape,pattern","227","1",""
"null","483946","HierDyqg24dhka","sub26","02","04","feedback","test","null","","","na","","227","",""
"511","484459","HierDyqg24dhka","sub26","02","04","rl","test","74","img/o_t_diag.png","6","74","color,shape,pattern","228","1",""
"null","485474","HierDyqg24dhka","sub26","02","04","feedback","test","null","","","na","","228","",""
"1194.0999999940395","486671","HierDyqg24dhka","sub26","02","04","rl","test","76","img/o_d_diag.png","8","76","color,shape,pattern","229","1",""
"null","487682","HierDyqg24dhka","sub26","02","04","feedback","test","null","","","na","","229","",""
"477.19999998807907","488162","HierDyqg24dhka","sub26","02","04","rl","test","70","img/p_d_diag.png","4","70","color,shape,pattern","230","1",""
"null","489170","HierDyqg24dhka","sub26","02","04","feedback","test","null","","","na","","230","",""
"697.9000000059605","489870","HierDyqg24dhka","sub26","02","04","rl","test","75","img/o_d_check.png","7","75","color,shape,pattern","231","1",""
"null","490882","HierDyqg24dhka","sub26","02","04","feedback","test","null","","","na","","231","",""
"614.2000000029802","491499","HierDyqg24dhka","sub26","02","04","rl","test","68","img/p_d_check.png","3","68","color,shape,pattern","232","1",""
"null","492506","HierDyqg24dhka","sub26","02","04","feedback","test","null","","","na","","232","",""
"825.7999999970198","493334","HierDyqg24dhka","sub26","02","04","rl","test","76","img/p_d_diag.png","4","70","color,shape,pattern","233","0",""
"null","494341","HierDyqg24dhka","sub26","02","04","feedback","test","null","","","na","","233","",""
"1706.4000000059605","496050","HierDyqg24dhka","sub26","02","04","rl","test","83","img/p_t_diag.png","2","83","color,shape,pattern","234","1",""
"null","497058","HierDyqg24dhka","sub26","02","04","feedback","test","null","","","na","","234","",""
"1146.0999999940395","498206","HierDyqg24dhka","sub26","02","04","rl","test","75","img/o_d_check.png","7","75","color,shape,pattern","235","1",""
"null","499214","HierDyqg24dhka","sub26","02","04","feedback","test","null","","","na","","235","",""
"1538.8999999910593","500755","HierDyqg24dhka","sub26","02","04","rl","test","76","img/o_d_diag.png","8","76","color,shape,pattern","236","1",""
"null","501762","HierDyqg24dhka","sub26","02","04","feedback","test","null","","","na","","236","",""
"695.2999999970198","502459","HierDyqg24dhka","sub26","02","04","rl","test","68","img/p_d_check.png","3","68","color,shape,pattern","237","1",""
"null","503474","HierDyqg24dhka","sub26","02","04","feedback","test","null","","","na","","237","",""
"988.7999999970198","504465","HierDyqg24dhka","sub26","02","04","rl","test","72","img/o_t_check.png","5","72","color,shape,pattern","238","1",""
"null","505474","HierDyqg24dhka","sub26","02","04","feedback","test","null","","","na","","238","",""
"690.0999999940395","506166","HierDyqg24dhka","sub26","02","04","rl","test","65","img/p_t_check.png","1","65","color,shape,pattern","239","1",""
"null","507174","HierDyqg24dhka","sub26","02","04","feedback","test","null","","","na","","239","",""
"1809.6000000089407","508985","HierDyqg24dhka","sub26","02","04","rl","test","74","img/o_t_diag.png","6","74","color,shape,pattern","240","1",""
"null","509994","HierDyqg24dhka","sub26","02","04","feedback","test","null","","","na","","240","",""
"598","510594","HierDyqg24dhka","sub26","02","04","rl","test","72","img/o_t_check.png","5","72","color,shape,pattern","241","1",""
"null","511597","HierDyqg24dhka","sub26","02","04","feedback","test","null","","","na","","241","",""
"684.0999999940395","512282","HierDyqg24dhka","sub26","02","04","rl","test","75","img/o_d_check.png","7","75","color,shape,pattern","242","1",""
"null","513290","HierDyqg24dhka","sub26","02","04","feedback","test","null","","","na","","242","",""
"858","514150","HierDyqg24dhka","sub26","02","04","rl","test","83","img/p_t_diag.png","2","83","color,shape,pattern","243","1",""
"null","515157","HierDyqg24dhka","sub26","02","04","feedback","test","null","","","na","","243","",""
"506.6000000089407","515665","HierDyqg24dhka","sub26","02","04","rl","test","65","img/p_t_check.png","1","65","color,shape,pattern","244","1",""
"null","516673","HierDyqg24dhka","sub26","02","04","feedback","test","null","","","na","","244","",""
"603.2999999970198","517278","HierDyqg24dhka","sub26","02","04","rl","test","70","img/p_d_diag.png","4","70","color,shape,pattern","245","1",""
"null","518285","HierDyqg24dhka","sub26","02","04","feedback","test","null","","","na","","245","",""
"605.2999999970198","518892","HierDyqg24dhka","sub26","02","04","rl","test","76","img/o_d_diag.png","8","76","color,shape,pattern","246","1",""
"null","519906","HierDyqg24dhka","sub26","02","04","feedback","test","null","","","na","","246","",""
"926.5999999940395","520834","HierDyqg24dhka","sub26","02","04","rl","test","83","img/p_t_diag.png","2","83","color,shape,pattern","247","1",""
"null","521838","HierDyqg24dhka","sub26","02","04","feedback","test","null","","","na","","247","",""
"1187.5999999940395","523027","HierDyqg24dhka","sub26","02","04","rl","test","74","img/o_t_diag.png","6","74","color,shape,pattern","248","1",""
"null","524041","HierDyqg24dhka","sub26","02","04","feedback","test","null","","","na","","248","",""
"6196.9000000059605","530245","HierDyqg24dhka","sub26","02","04","","","","","","","","","","{""Q0"":""6""}"
"50324","580573","HierDyqg24dhka","sub26","02","04","","","","","","","","","","{""Q0"":""My strategy here was the same as the other two times I took this test, except I was faster because I'm technically rehearsing these shapes in my memory considering that I am trained to press these buttons every day. ""}"
"1475.5999999940395","582050","HierDyqg24dhka","sub26","02","04","","","","","","","","","",""
