"rt","time_elapsed","subject","subID","group","day","trialType","phase","key_press","stim","stimNum","corrresp","hierarchy","trialNum","corr","responses"
"1935","1938","HierDyge97xraz","sub01 ","01 ","5","","","","","","","","","",""
"","4035","HierDyge97xraz","sub01 ","01 ","5","fullscreen","","","","","","","","",""
"702.9999999999991","4738","HierDyge97xraz","sub01 ","01 ","5","","prac","","","","","","","",""
"1171.999999999999","5912","HierDyge97xraz","sub01 ","01 ","5","","","32","","","","","","",""
"836","6750","HierDyge97xraz","sub01 ","01 ","5","","prac","","","","","","","",""
"886","7639","HierDyge97xraz","sub01 ","01 ","5","rl","test","72","img/r_c_dots.png","5","72","color,shape,pattern","1","1",""
"null","8642","HierDyge97xraz","sub01 ","01 ","5","feedback","test","null","","","na","","1","",""
"686","9329","HierDyge97xraz","sub01 ","01 ","5","rl","test","76","img/r_s_stripes.png","8","76","color,shape,pattern","2","1",""
"null","10332","HierDyge97xraz","sub01 ","01 ","5","feedback","test","null","","","na","","2","",""
"587","10922","HierDyge97xraz","sub01 ","01 ","5","rl","test","65","img/b_c_dots.png","1","65","color,shape,pattern","3","1",""
"null","11924","HierDyge97xraz","sub01 ","01 ","5","feedback","test","null","","","na","","3","",""
"603.0000000000018","12529","HierDyge97xraz","sub01 ","01 ","5","rl","test","74","img/r_c_stripes.png","6","74","color,shape,pattern","4","1",""
"null","13531","HierDyge97xraz","sub01 ","01 ","5","feedback","test","null","","","na","","4","",""
"741","14274","HierDyge97xraz","sub01 ","01 ","5","rl","test","70","img/b_s_stripes.png","4","70","color,shape,pattern","5","1",""
"null","15277","HierDyge97xraz","sub01 ","01 ","5","feedback","test","null","","","na","","5","",""
"729","16008","HierDyge97xraz","sub01 ","01 ","5","rl","test","83","img/b_c_stripes.png","2","83","color,shape,pattern","6","1",""
"null","17011","HierDyge97xraz","sub01 ","01 ","5","feedback","test","null","","","na","","6","",""
"967","17979","HierDyge97xraz","sub01 ","01 ","5","rl","test","74","img/r_s_dots.png","7","75","color,shape,pattern","7","0",""
"null","18983","HierDyge97xraz","sub01 ","01 ","5","feedback","test","null","","","na","","7","",""
"1100","20084","HierDyge97xraz","sub01 ","01 ","5","rl","test","68","img/b_s_dots.png","3","68","color,shape,pattern","8","1",""
"null","21087","HierDyge97xraz","sub01 ","01 ","5","feedback","test","null","","","na","","8","",""
"610","21699","HierDyge97xraz","sub01 ","01 ","5","rl","test","83","img/b_c_stripes.png","2","83","color,shape,pattern","9","1",""
"null","22702","HierDyge97xraz","sub01 ","01 ","5","feedback","test","null","","","na","","9","",""
"465","23168","HierDyge97xraz","sub01 ","01 ","5","rl","test","65","img/b_c_dots.png","1","65","color,shape,pattern","10","1",""
"null","24171","HierDyge97xraz","sub01 ","01 ","5","feedback","test","null","","","na","","10","",""
"665","24837","HierDyge97xraz","sub01 ","01 ","5","rl","test","68","img/b_s_dots.png","3","68","color,shape,pattern","11","1",""
"null","25839","HierDyge97xraz","sub01 ","01 ","5","feedback","test","null","","","na","","11","",""
"556","26397","HierDyge97xraz","sub01 ","01 ","5","rl","test","75","img/r_s_dots.png","7","75","color,shape,pattern","12","1",""
"null","27400","HierDyge97xraz","sub01 ","01 ","5","feedback","test","null","","","na","","12","",""
"542.0000000000036","27944","HierDyge97xraz","sub01 ","01 ","5","rl","test","76","img/r_s_stripes.png","8","76","color,shape,pattern","13","1",""
"null","28947","HierDyge97xraz","sub01 ","01 ","5","feedback","test","null","","","na","","13","",""
"1154","30102","HierDyge97xraz","sub01 ","01 ","5","rl","test","72","img/r_c_dots.png","5","72","color,shape,pattern","14","1",""
"null","31105","HierDyge97xraz","sub01 ","01 ","5","feedback","test","null","","","na","","14","",""
"508.00000000000364","31613","HierDyge97xraz","sub01 ","01 ","5","rl","test","72","img/r_c_dots.png","5","72","color,shape,pattern","15","1",""
"null","32616","HierDyge97xraz","sub01 ","01 ","5","feedback","test","null","","","na","","15","",""
"653","33270","HierDyge97xraz","sub01 ","01 ","5","rl","test","74","img/r_c_stripes.png","6","74","color,shape,pattern","16","1",""
"null","34273","HierDyge97xraz","sub01 ","01 ","5","feedback","test","null","","","na","","16","",""
"555","34829","HierDyge97xraz","sub01 ","01 ","5","rl","test","76","img/r_s_stripes.png","8","76","color,shape,pattern","17","1",""
"null","35833","HierDyge97xraz","sub01 ","01 ","5","feedback","test","null","","","na","","17","",""
"912","36746","HierDyge97xraz","sub01 ","01 ","5","rl","test","83","img/b_c_stripes.png","2","83","color,shape,pattern","18","1",""
"null","37749","HierDyge97xraz","sub01 ","01 ","5","feedback","test","null","","","na","","18","",""
"588.0000000000073","38338","HierDyge97xraz","sub01 ","01 ","5","rl","test","70","img/b_s_stripes.png","4","70","color,shape,pattern","19","1",""
"null","39341","HierDyge97xraz","sub01 ","01 ","5","feedback","test","null","","","na","","19","",""
"1038","40381","HierDyge97xraz","sub01 ","01 ","5","rl","test","75","img/r_s_dots.png","7","75","color,shape,pattern","20","1",""
"null","41384","HierDyge97xraz","sub01 ","01 ","5","feedback","test","null","","","na","","20","",""
"625","42011","HierDyge97xraz","sub01 ","01 ","5","rl","test","70","img/b_s_stripes.png","4","70","color,shape,pattern","21","1",""
"null","43013","HierDyge97xraz","sub01 ","01 ","5","feedback","test","null","","","na","","21","",""
"951.0000000000073","43965","HierDyge97xraz","sub01 ","01 ","5","rl","test","74","img/r_c_stripes.png","6","74","color,shape,pattern","22","1",""
"null","44968","HierDyge97xraz","sub01 ","01 ","5","feedback","test","null","","","na","","22","",""
"514","45484","HierDyge97xraz","sub01 ","01 ","5","rl","test","83","img/b_c_stripes.png","2","83","color,shape,pattern","23","1",""
"null","46487","HierDyge97xraz","sub01 ","01 ","5","feedback","test","null","","","na","","23","",""
"700","47188","HierDyge97xraz","sub01 ","01 ","5","rl","test","65","img/b_c_dots.png","1","65","color,shape,pattern","24","1",""
"null","48190","HierDyge97xraz","sub01 ","01 ","5","feedback","test","null","","","na","","24","",""
"751","48942","HierDyge97xraz","sub01 ","01 ","5","rl","test","68","img/b_s_dots.png","3","68","color,shape,pattern","25","1",""
"null","49945","HierDyge97xraz","sub01 ","01 ","5","feedback","test","null","","","na","","25","",""
"479","50426","HierDyge97xraz","sub01 ","01 ","5","rl","test","68","img/b_s_dots.png","3","68","color,shape,pattern","26","1",""
"null","51429","HierDyge97xraz","sub01 ","01 ","5","feedback","test","null","","","na","","26","",""
"647","52078","HierDyge97xraz","sub01 ","01 ","5","rl","test","75","img/r_s_dots.png","7","75","color,shape,pattern","27","1",""
"null","53081","HierDyge97xraz","sub01 ","01 ","5","feedback","test","null","","","na","","27","",""
"476","53559","HierDyge97xraz","sub01 ","01 ","5","rl","test","76","img/r_s_stripes.png","8","76","color,shape,pattern","28","1",""
"null","54562","HierDyge97xraz","sub01 ","01 ","5","feedback","test","null","","","na","","28","",""
"632","55195","HierDyge97xraz","sub01 ","01 ","5","rl","test","83","img/b_c_dots.png","1","65","color,shape,pattern","29","0",""
"null","56198","HierDyge97xraz","sub01 ","01 ","5","feedback","test","null","","","na","","29","",""
"581","56780","HierDyge97xraz","sub01 ","01 ","5","rl","test","65","img/r_c_dots.png","5","72","color,shape,pattern","30","0",""
"null","57783","HierDyge97xraz","sub01 ","01 ","5","feedback","test","null","","","na","","30","",""
"803.0000000000073","58588","HierDyge97xraz","sub01 ","01 ","5","rl","test","70","img/b_s_stripes.png","4","70","color,shape,pattern","31","1",""
"null","59591","HierDyge97xraz","sub01 ","01 ","5","feedback","test","null","","","na","","31","",""
"628","60220","HierDyge97xraz","sub01 ","01 ","5","rl","test","74","img/r_c_stripes.png","6","74","color,shape,pattern","32","1",""
"null","61223","HierDyge97xraz","sub01 ","01 ","5","feedback","test","null","","","na","","32","",""
"1183","62408","HierDyge97xraz","sub01 ","01 ","5","rl","test","70","img/b_s_stripes.png","4","70","color,shape,pattern","33","1",""
"null","63411","HierDyge97xraz","sub01 ","01 ","5","feedback","test","null","","","na","","33","",""
"562.9999999999854","63976","HierDyge97xraz","sub01 ","01 ","5","rl","test","68","img/b_s_dots.png","3","68","color,shape,pattern","34","1",""
"null","64979","HierDyge97xraz","sub01 ","01 ","5","feedback","test","null","","","na","","34","",""
"657","65637","HierDyge97xraz","sub01 ","01 ","5","rl","test","83","img/b_c_stripes.png","2","83","color,shape,pattern","35","1",""
"null","66640","HierDyge97xraz","sub01 ","01 ","5","feedback","test","null","","","na","","35","",""
"615","67257","HierDyge97xraz","sub01 ","01 ","5","rl","test","65","img/b_c_dots.png","1","65","color,shape,pattern","36","1",""
"null","68260","HierDyge97xraz","sub01 ","01 ","5","feedback","test","null","","","na","","36","",""
"618","68879","HierDyge97xraz","sub01 ","01 ","5","rl","test","83","img/b_c_dots.png","1","65","color,shape,pattern","37","0",""
"null","69882","HierDyge97xraz","sub01 ","01 ","5","feedback","test","null","","","na","","37","",""
"1023","70906","HierDyge97xraz","sub01 ","01 ","5","rl","test","74","img/r_c_stripes.png","6","74","color,shape,pattern","38","1",""
"null","71909","HierDyge97xraz","sub01 ","01 ","5","feedback","test","null","","","na","","38","",""
"799","72710","HierDyge97xraz","sub01 ","01 ","5","rl","test","76","img/r_s_stripes.png","8","76","color,shape,pattern","39","1",""
"null","73713","HierDyge97xraz","sub01 ","01 ","5","feedback","test","null","","","na","","39","",""
"679","74393","HierDyge97xraz","sub01 ","01 ","5","rl","test","75","img/r_s_dots.png","7","75","color,shape,pattern","40","1",""
"null","75396","HierDyge97xraz","sub01 ","01 ","5","feedback","test","null","","","na","","40","",""
"1336","76733","HierDyge97xraz","sub01 ","01 ","5","rl","test","74","img/r_c_stripes.png","6","74","color,shape,pattern","41","1",""
"null","77736","HierDyge97xraz","sub01 ","01 ","5","feedback","test","null","","","na","","41","",""
"933","78671","HierDyge97xraz","sub01 ","01 ","5","rl","test","75","img/r_s_dots.png","7","75","color,shape,pattern","42","1",""
"null","79673","HierDyge97xraz","sub01 ","01 ","5","feedback","test","null","","","na","","42","",""
"849","80524","HierDyge97xraz","sub01 ","01 ","5","rl","test","68","img/b_s_dots.png","3","68","color,shape,pattern","43","1",""
"null","81525","HierDyge97xraz","sub01 ","01 ","5","feedback","test","null","","","na","","43","",""
"673","82200","HierDyge97xraz","sub01 ","01 ","5","rl","test","65","img/r_c_dots.png","5","72","color,shape,pattern","44","0",""
"null","83202","HierDyge97xraz","sub01 ","01 ","5","feedback","test","null","","","na","","44","",""
"594","83797","HierDyge97xraz","sub01 ","01 ","5","rl","test","70","img/r_s_stripes.png","8","76","color,shape,pattern","45","0",""
"null","84800","HierDyge97xraz","sub01 ","01 ","5","feedback","test","null","","","na","","45","",""
"509","85310","HierDyge97xraz","sub01 ","01 ","5","rl","test","70","img/b_s_stripes.png","4","70","color,shape,pattern","46","1",""
"null","86313","HierDyge97xraz","sub01 ","01 ","5","feedback","test","null","","","na","","46","",""
"525.9999999999854","86840","HierDyge97xraz","sub01 ","01 ","5","rl","test","83","img/b_s_dots.png","3","68","color,shape,pattern","47","0",""
"null","87843","HierDyge97xraz","sub01 ","01 ","5","feedback","test","null","","","na","","47","",""
"1011","88855","HierDyge97xraz","sub01 ","01 ","5","rl","test","72","img/r_c_dots.png","5","72","color,shape,pattern","48","1",""
"null","89858","HierDyge97xraz","sub01 ","01 ","5","feedback","test","null","","","na","","48","",""
"790","90650","HierDyge97xraz","sub01 ","01 ","5","rl","test","70","img/b_s_stripes.png","4","70","color,shape,pattern","49","1",""
"null","91653","HierDyge97xraz","sub01 ","01 ","5","feedback","test","null","","","na","","49","",""
"500","92155","HierDyge97xraz","sub01 ","01 ","5","rl","test","83","img/b_c_stripes.png","2","83","color,shape,pattern","50","1",""
"null","93158","HierDyge97xraz","sub01 ","01 ","5","feedback","test","null","","","na","","50","",""
"844","94004","HierDyge97xraz","sub01 ","01 ","5","rl","test","74","img/r_c_stripes.png","6","74","color,shape,pattern","51","1",""
"null","95006","HierDyge97xraz","sub01 ","01 ","5","feedback","test","null","","","na","","51","",""
"830","95837","HierDyge97xraz","sub01 ","01 ","5","rl","test","65","img/b_c_dots.png","1","65","color,shape,pattern","52","1",""
"null","96839","HierDyge97xraz","sub01 ","01 ","5","feedback","test","null","","","na","","52","",""
"577.9999999999854","97420","HierDyge97xraz","sub01 ","01 ","5","rl","test","76","img/r_s_stripes.png","8","76","color,shape,pattern","53","1",""
"null","98422","HierDyge97xraz","sub01 ","01 ","5","feedback","test","null","","","na","","53","",""
"680","99103","HierDyge97xraz","sub01 ","01 ","5","rl","test","75","img/r_s_dots.png","7","75","color,shape,pattern","54","1",""
"null","100106","HierDyge97xraz","sub01 ","01 ","5","feedback","test","null","","","na","","54","",""
"779","100886","HierDyge97xraz","sub01 ","01 ","5","rl","test","72","img/r_c_dots.png","5","72","color,shape,pattern","55","1",""
"null","101889","HierDyge97xraz","sub01 ","01 ","5","feedback","test","null","","","na","","55","",""
"625","102515","HierDyge97xraz","sub01 ","01 ","5","rl","test","74","img/r_c_stripes.png","6","74","color,shape,pattern","56","1",""
"null","103517","HierDyge97xraz","sub01 ","01 ","5","feedback","test","null","","","na","","56","",""
"662","104181","HierDyge97xraz","sub01 ","01 ","5","rl","test","83","img/b_c_stripes.png","2","83","color,shape,pattern","57","1",""
"null","105184","HierDyge97xraz","sub01 ","01 ","5","feedback","test","null","","","na","","57","",""
"673.9999999999854","105860","HierDyge97xraz","sub01 ","01 ","5","rl","test","70","img/b_s_stripes.png","4","70","color,shape,pattern","58","1",""
"null","106862","HierDyge97xraz","sub01 ","01 ","5","feedback","test","null","","","na","","58","",""
"919","107783","HierDyge97xraz","sub01 ","01 ","5","rl","test","83","img/b_c_stripes.png","2","83","color,shape,pattern","59","1",""
"null","108786","HierDyge97xraz","sub01 ","01 ","5","feedback","test","null","","","na","","59","",""
"788","109575","HierDyge97xraz","sub01 ","01 ","5","rl","test","75","img/r_s_dots.png","7","75","color,shape,pattern","60","1",""
"null","110578","HierDyge97xraz","sub01 ","01 ","5","feedback","test","null","","","na","","60","",""
"556.9999999999854","111136","HierDyge97xraz","sub01 ","01 ","5","rl","test","76","img/r_s_stripes.png","8","76","color,shape,pattern","61","1",""
"null","112138","HierDyge97xraz","sub01 ","01 ","5","feedback","test","null","","","na","","61","",""
"1827","113967","HierDyge97xraz","sub01 ","01 ","5","rl","test","68","img/b_s_dots.png","3","68","color,shape,pattern","62","1",""
"null","114969","HierDyge97xraz","sub01 ","01 ","5","feedback","test","null","","","na","","62","",""
"570","115540","HierDyge97xraz","sub01 ","01 ","5","rl","test","83","img/b_c_dots.png","1","65","color,shape,pattern","63","0",""
"null","116542","HierDyge97xraz","sub01 ","01 ","5","feedback","test","null","","","na","","63","",""
"720","117263","HierDyge97xraz","sub01 ","01 ","5","rl","test","75","img/r_c_dots.png","5","72","color,shape,pattern","64","0",""
"null","118266","HierDyge97xraz","sub01 ","01 ","5","feedback","test","null","","","na","","64","",""
"394","118662","HierDyge97xraz","sub01 ","01 ","5","rl","test","75","img/r_c_dots.png","5","72","color,shape,pattern","65","0",""
"null","119664","HierDyge97xraz","sub01 ","01 ","5","feedback","test","null","","","na","","65","",""
"1135","120801","HierDyge97xraz","sub01 ","01 ","5","rl","test","74","img/r_c_stripes.png","6","74","color,shape,pattern","66","1",""
"null","121803","HierDyge97xraz","sub01 ","01 ","5","feedback","test","null","","","na","","66","",""
"1263.9999999999854","123068","HierDyge97xraz","sub01 ","01 ","5","rl","test","65","img/b_c_dots.png","1","65","color,shape,pattern","67","1",""
"null","124071","HierDyge97xraz","sub01 ","01 ","5","feedback","test","null","","","na","","67","",""
"602.9999999999854","124676","HierDyge97xraz","sub01 ","01 ","5","rl","test","72","img/r_c_dots.png","5","72","color,shape,pattern","68","1",""
"null","125678","HierDyge97xraz","sub01 ","01 ","5","feedback","test","null","","","na","","68","",""
"718.9999999999854","126399","HierDyge97xraz","sub01 ","01 ","5","rl","test","70","img/b_s_stripes.png","4","70","color,shape,pattern","69","1",""
"null","127401","HierDyge97xraz","sub01 ","01 ","5","feedback","test","null","","","na","","69","",""
"451.0000000000291","127854","HierDyge97xraz","sub01 ","01 ","5","rl","test","76","img/r_s_stripes.png","8","76","color,shape,pattern","70","1",""
"null","128856","HierDyge97xraz","sub01 ","01 ","5","feedback","test","null","","","na","","70","",""
"873","129731","HierDyge97xraz","sub01 ","01 ","5","rl","test","74","img/b_c_stripes.png","2","83","color,shape,pattern","71","0",""
"null","130733","HierDyge97xraz","sub01 ","01 ","5","feedback","test","null","","","na","","71","",""
"700","131435","HierDyge97xraz","sub01 ","01 ","5","rl","test","65","img/b_c_dots.png","1","65","color,shape,pattern","72","1",""
"null","132438","HierDyge97xraz","sub01 ","01 ","5","feedback","test","null","","","na","","72","",""
"804","133243","HierDyge97xraz","sub01 ","01 ","5","rl","test","75","img/r_s_dots.png","7","75","color,shape,pattern","73","1",""
"null","134246","HierDyge97xraz","sub01 ","01 ","5","feedback","test","null","","","na","","73","",""
"802.9999999999709","135050","HierDyge97xraz","sub01 ","01 ","5","rl","test","68","img/b_s_dots.png","3","68","color,shape,pattern","74","1",""
"null","136053","HierDyge97xraz","sub01 ","01 ","5","feedback","test","null","","","na","","74","",""
"467","136522","HierDyge97xraz","sub01 ","01 ","5","rl","test","68","img/b_s_dots.png","3","68","color,shape,pattern","75","1",""
"null","137524","HierDyge97xraz","sub01 ","01 ","5","feedback","test","null","","","na","","75","",""
"663","138189","HierDyge97xraz","sub01 ","01 ","5","rl","test","75","img/r_s_dots.png","7","75","color,shape,pattern","76","1",""
"null","139191","HierDyge97xraz","sub01 ","01 ","5","feedback","test","null","","","na","","76","",""
"758","139950","HierDyge97xraz","sub01 ","01 ","5","rl","test","70","img/b_s_stripes.png","4","70","color,shape,pattern","77","1",""
"null","140953","HierDyge97xraz","sub01 ","01 ","5","feedback","test","null","","","na","","77","",""
"1121","142076","HierDyge97xraz","sub01 ","01 ","5","rl","test","83","img/b_c_stripes.png","2","83","color,shape,pattern","78","1",""
"null","143079","HierDyge97xraz","sub01 ","01 ","5","feedback","test","null","","","na","","78","",""
"457","143537","HierDyge97xraz","sub01 ","01 ","5","rl","test","74","img/r_c_stripes.png","6","74","color,shape,pattern","79","1",""
"null","144540","HierDyge97xraz","sub01 ","01 ","5","feedback","test","null","","","na","","79","",""
"531","145071","HierDyge97xraz","sub01 ","01 ","5","rl","test","76","img/r_s_stripes.png","8","76","color,shape,pattern","80","1",""
"null","146074","HierDyge97xraz","sub01 ","01 ","5","feedback","test","null","","","na","","80","",""
"754","146830","HierDyge97xraz","sub01 ","01 ","5","rl","test","70","img/b_s_stripes.png","4","70","color,shape,pattern","81","1",""
"null","147832","HierDyge97xraz","sub01 ","01 ","5","feedback","test","null","","","na","","81","",""
"997","148831","HierDyge97xraz","sub01 ","01 ","5","rl","test","72","img/r_c_dots.png","5","72","color,shape,pattern","82","1",""
"null","149834","HierDyge97xraz","sub01 ","01 ","5","feedback","test","null","","","na","","82","",""
"749","150583","HierDyge97xraz","sub01 ","01 ","5","rl","test","83","img/b_c_stripes.png","2","83","color,shape,pattern","83","1",""
"null","151586","HierDyge97xraz","sub01 ","01 ","5","feedback","test","null","","","na","","83","",""
"723","152311","HierDyge97xraz","sub01 ","01 ","5","rl","test","72","img/r_c_dots.png","5","72","color,shape,pattern","84","1",""
"null","153314","HierDyge97xraz","sub01 ","01 ","5","feedback","test","null","","","na","","84","",""
"936","154252","HierDyge97xraz","sub01 ","01 ","5","rl","test","74","img/r_c_stripes.png","6","74","color,shape,pattern","85","1",""
"null","155254","HierDyge97xraz","sub01 ","01 ","5","feedback","test","null","","","na","","85","",""
"1174","156430","HierDyge97xraz","sub01 ","01 ","5","rl","test","68","img/b_s_dots.png","3","68","color,shape,pattern","86","1",""
"null","157432","HierDyge97xraz","sub01 ","01 ","5","feedback","test","null","","","na","","86","",""
"604","158038","HierDyge97xraz","sub01 ","01 ","5","rl","test","83","img/b_c_dots.png","1","65","color,shape,pattern","87","0",""
"null","159040","HierDyge97xraz","sub01 ","01 ","5","feedback","test","null","","","na","","87","",""
"483","159525","HierDyge97xraz","sub01 ","01 ","5","rl","test","65","img/b_c_dots.png","1","65","color,shape,pattern","88","1",""
"null","160527","HierDyge97xraz","sub01 ","01 ","5","feedback","test","null","","","na","","88","",""
"1283","161811","HierDyge97xraz","sub01 ","01 ","5","rl","test","75","img/r_s_dots.png","7","75","color,shape,pattern","89","1",""
"null","162814","HierDyge97xraz","sub01 ","01 ","5","feedback","test","null","","","na","","89","",""
"599","163414","HierDyge97xraz","sub01 ","01 ","5","rl","test","76","img/r_s_stripes.png","8","76","color,shape,pattern","90","1",""
"null","164416","HierDyge97xraz","sub01 ","01 ","5","feedback","test","null","","","na","","90","",""
"633.0000000000291","165050","HierDyge97xraz","sub01 ","01 ","5","rl","test","83","img/b_c_stripes.png","2","83","color,shape,pattern","91","1",""
"null","166053","HierDyge97xraz","sub01 ","01 ","5","feedback","test","null","","","na","","91","",""
"548","166603","HierDyge97xraz","sub01 ","01 ","5","rl","test","74","img/r_c_stripes.png","6","74","color,shape,pattern","92","1",""
"null","167605","HierDyge97xraz","sub01 ","01 ","5","feedback","test","null","","","na","","92","",""
"856","168462","HierDyge97xraz","sub01 ","01 ","5","rl","test","70","img/b_s_stripes.png","4","70","color,shape,pattern","93","1",""
"null","169464","HierDyge97xraz","sub01 ","01 ","5","feedback","test","null","","","na","","93","",""
"433","169899","HierDyge97xraz","sub01 ","01 ","5","rl","test","76","img/r_s_stripes.png","8","76","color,shape,pattern","94","1",""
"null","170901","HierDyge97xraz","sub01 ","01 ","5","feedback","test","null","","","na","","94","",""
"809","171712","HierDyge97xraz","sub01 ","01 ","5","rl","test","68","img/b_s_dots.png","3","68","color,shape,pattern","95","1",""
"null","172715","HierDyge97xraz","sub01 ","01 ","5","feedback","test","null","","","na","","95","",""
"540","173256","HierDyge97xraz","sub01 ","01 ","5","rl","test","68","img/b_s_dots.png","3","68","color,shape,pattern","96","1",""
"null","174259","HierDyge97xraz","sub01 ","01 ","5","feedback","test","null","","","na","","96","",""
"620","174880","HierDyge97xraz","sub01 ","01 ","5","rl","test","83","img/b_c_stripes.png","2","83","color,shape,pattern","97","1",""
"null","175882","HierDyge97xraz","sub01 ","01 ","5","feedback","test","null","","","na","","97","",""
"792","176676","HierDyge97xraz","sub01 ","01 ","5","rl","test","72","img/r_c_dots.png","5","72","color,shape,pattern","98","1",""
"null","177678","HierDyge97xraz","sub01 ","01 ","5","feedback","test","null","","","na","","98","",""
"620","178299","HierDyge97xraz","sub01 ","01 ","5","rl","test","65","img/b_c_dots.png","1","65","color,shape,pattern","99","1",""
"null","179302","HierDyge97xraz","sub01 ","01 ","5","feedback","test","null","","","na","","99","",""
"1436","180739","HierDyge97xraz","sub01 ","01 ","5","rl","test","75","img/r_s_dots.png","7","75","color,shape,pattern","100","1",""
"null","181742","HierDyge97xraz","sub01 ","01 ","5","feedback","test","null","","","na","","100","",""
"665","182408","HierDyge97xraz","sub01 ","01 ","5","rl","test","83","img/b_c_stripes.png","2","83","color,shape,pattern","101","1",""
"null","183411","HierDyge97xraz","sub01 ","01 ","5","feedback","test","null","","","na","","101","",""
"810","184222","HierDyge97xraz","sub01 ","01 ","5","rl","test","75","img/r_s_dots.png","7","75","color,shape,pattern","102","1",""
"null","185225","HierDyge97xraz","sub01 ","01 ","5","feedback","test","null","","","na","","102","",""
"936","186162","HierDyge97xraz","sub01 ","01 ","5","rl","test","72","img/r_c_dots.png","5","72","color,shape,pattern","103","1",""
"null","187165","HierDyge97xraz","sub01 ","01 ","5","feedback","test","null","","","na","","103","",""
"601","187767","HierDyge97xraz","sub01 ","01 ","5","rl","test","76","img/r_s_stripes.png","8","76","color,shape,pattern","104","1",""
"null","188770","HierDyge97xraz","sub01 ","01 ","5","feedback","test","null","","","na","","104","",""
"673","189444","HierDyge97xraz","sub01 ","01 ","5","rl","test","74","img/r_c_stripes.png","6","74","color,shape,pattern","105","1",""
"null","190447","HierDyge97xraz","sub01 ","01 ","5","feedback","test","null","","","na","","105","",""
"722","191170","HierDyge97xraz","sub01 ","01 ","5","rl","test","72","img/r_c_dots.png","5","72","color,shape,pattern","106","1",""
"null","192173","HierDyge97xraz","sub01 ","01 ","5","feedback","test","null","","","na","","106","",""
"727.0000000000291","192901","HierDyge97xraz","sub01 ","01 ","5","rl","test","70","img/b_s_stripes.png","4","70","color,shape,pattern","107","1",""
"null","193904","HierDyge97xraz","sub01 ","01 ","5","feedback","test","null","","","na","","107","",""
"478.0000000000291","194383","HierDyge97xraz","sub01 ","01 ","5","rl","test","70","img/b_s_stripes.png","4","70","color,shape,pattern","108","1",""
"null","195386","HierDyge97xraz","sub01 ","01 ","5","feedback","test","null","","","na","","108","",""
"556.0000000000291","195943","HierDyge97xraz","sub01 ","01 ","5","rl","test","76","img/r_s_stripes.png","8","76","color,shape,pattern","109","1",""
"null","196945","HierDyge97xraz","sub01 ","01 ","5","feedback","test","null","","","na","","109","",""
"637","197583","HierDyge97xraz","sub01 ","01 ","5","rl","test","75","img/b_s_dots.png","3","68","color,shape,pattern","110","0",""
"null","198586","HierDyge97xraz","sub01 ","01 ","5","feedback","test","null","","","na","","110","",""
"553","199140","HierDyge97xraz","sub01 ","01 ","5","rl","test","75","img/r_s_dots.png","7","75","color,shape,pattern","111","1",""
"null","200143","HierDyge97xraz","sub01 ","01 ","5","feedback","test","null","","","na","","111","",""
"787.0000000000291","200931","HierDyge97xraz","sub01 ","01 ","5","rl","test","74","img/r_c_stripes.png","6","74","color,shape,pattern","112","1",""
"null","201934","HierDyge97xraz","sub01 ","01 ","5","feedback","test","null","","","na","","112","",""
"648","202583","HierDyge97xraz","sub01 ","01 ","5","rl","test","75","img/r_s_dots.png","7","75","color,shape,pattern","113","1",""
"null","203585","HierDyge97xraz","sub01 ","01 ","5","feedback","test","null","","","na","","113","",""
"762.9999999999709","204349","HierDyge97xraz","sub01 ","01 ","5","rl","test","65","img/b_c_dots.png","1","65","color,shape,pattern","114","1",""
"null","205352","HierDyge97xraz","sub01 ","01 ","5","feedback","test","null","","","na","","114","",""
"540","205893","HierDyge97xraz","sub01 ","01 ","5","rl","test","76","img/r_s_stripes.png","8","76","color,shape,pattern","115","1",""
"null","206896","HierDyge97xraz","sub01 ","01 ","5","feedback","test","null","","","na","","115","",""
"964","207861","HierDyge97xraz","sub01 ","01 ","5","rl","test","74","img/b_c_stripes.png","2","83","color,shape,pattern","116","0",""
"null","208863","HierDyge97xraz","sub01 ","01 ","5","feedback","test","null","","","na","","116","",""
"820","209685","HierDyge97xraz","sub01 ","01 ","5","rl","test","65","img/b_c_dots.png","1","65","color,shape,pattern","117","1",""
"null","210687","HierDyge97xraz","sub01 ","01 ","5","feedback","test","null","","","na","","117","",""
"658","211347","HierDyge97xraz","sub01 ","01 ","5","rl","test","68","img/b_s_dots.png","3","68","color,shape,pattern","118","1",""
"null","212349","HierDyge97xraz","sub01 ","01 ","5","feedback","test","null","","","na","","118","",""
"588","212938","HierDyge97xraz","sub01 ","01 ","5","rl","test","70","img/b_s_stripes.png","4","70","color,shape,pattern","119","1",""
"null","213941","HierDyge97xraz","sub01 ","01 ","5","feedback","test","null","","","na","","119","",""
"1014","214956","HierDyge97xraz","sub01 ","01 ","5","rl","test","74","img/r_c_stripes.png","6","74","color,shape,pattern","120","1",""
"null","215957","HierDyge97xraz","sub01 ","01 ","5","feedback","test","null","","","na","","120","",""
"663","216622","HierDyge97xraz","sub01 ","01 ","5","rl","test","72","img/r_c_dots.png","5","72","color,shape,pattern","121","1",""
"null","217624","HierDyge97xraz","sub01 ","01 ","5","feedback","test","null","","","na","","121","",""
"1612","219237","HierDyge97xraz","sub01 ","01 ","5","rl","test","83","img/b_c_dots.png","1","65","color,shape,pattern","122","0",""
"null","220240","HierDyge97xraz","sub01 ","01 ","5","feedback","test","null","","","na","","122","",""
"1109","221351","HierDyge97xraz","sub01 ","01 ","5","rl","test","75","img/r_s_dots.png","7","75","color,shape,pattern","123","1",""
"null","222353","HierDyge97xraz","sub01 ","01 ","5","feedback","test","null","","","na","","123","",""
"597","222952","HierDyge97xraz","sub01 ","01 ","5","rl","test","74","img/r_c_stripes.png","6","74","color,shape,pattern","124","1",""
"null","223955","HierDyge97xraz","sub01 ","01 ","5","feedback","test","null","","","na","","124","",""
"746","224702","HierDyge97xraz","sub01 ","01 ","5","rl","test","68","img/b_s_dots.png","3","68","color,shape,pattern","125","1",""
"null","225705","HierDyge97xraz","sub01 ","01 ","5","feedback","test","null","","","na","","125","",""
"912","226618","HierDyge97xraz","sub01 ","01 ","5","rl","test","74","img/r_c_stripes.png","6","74","color,shape,pattern","126","1",""
"null","227619","HierDyge97xraz","sub01 ","01 ","5","feedback","test","null","","","na","","126","",""
"539.9999999999709","228161","HierDyge97xraz","sub01 ","01 ","5","rl","test","76","img/r_s_stripes.png","8","76","color,shape,pattern","127","1",""
"null","229164","HierDyge97xraz","sub01 ","01 ","5","feedback","test","null","","","na","","127","",""
"1320","230485","HierDyge97xraz","sub01 ","01 ","5","rl","test","83","img/b_c_stripes.png","2","83","color,shape,pattern","128","1",""
"null","231487","HierDyge97xraz","sub01 ","01 ","5","feedback","test","null","","","na","","128","",""
"725","232213","HierDyge97xraz","sub01 ","01 ","5","rl","test","75","img/r_s_dots.png","7","75","color,shape,pattern","129","1",""
"null","233215","HierDyge97xraz","sub01 ","01 ","5","feedback","test","null","","","na","","129","",""
"681.9999999999709","233899","HierDyge97xraz","sub01 ","01 ","5","rl","test","72","img/r_c_dots.png","5","72","color,shape,pattern","130","1",""
"null","234901","HierDyge97xraz","sub01 ","01 ","5","feedback","test","null","","","na","","130","",""
"805","235708","HierDyge97xraz","sub01 ","01 ","5","rl","test","83","img/b_c_stripes.png","2","83","color,shape,pattern","131","1",""
"null","236711","HierDyge97xraz","sub01 ","01 ","5","feedback","test","null","","","na","","131","",""
"483","237195","HierDyge97xraz","sub01 ","01 ","5","rl","test","70","img/b_s_stripes.png","4","70","color,shape,pattern","132","1",""
"null","238198","HierDyge97xraz","sub01 ","01 ","5","feedback","test","null","","","na","","132","",""
"541.9999999999709","238741","HierDyge97xraz","sub01 ","01 ","5","rl","test","70","img/b_s_stripes.png","4","70","color,shape,pattern","133","1",""
"null","239743","HierDyge97xraz","sub01 ","01 ","5","feedback","test","null","","","na","","133","",""
"534","240279","HierDyge97xraz","sub01 ","01 ","5","rl","test","83","img/b_c_dots.png","1","65","color,shape,pattern","134","0",""
"null","241282","HierDyge97xraz","sub01 ","01 ","5","feedback","test","null","","","na","","134","",""
"858","242140","HierDyge97xraz","sub01 ","01 ","5","rl","test","68","img/b_s_dots.png","3","68","color,shape,pattern","135","1",""
"null","243142","HierDyge97xraz","sub01 ","01 ","5","feedback","test","null","","","na","","135","",""
"641","243785","HierDyge97xraz","sub01 ","01 ","5","rl","test","76","img/r_s_stripes.png","8","76","color,shape,pattern","136","1",""
"null","244787","HierDyge97xraz","sub01 ","01 ","5","feedback","test","null","","","na","","136","",""
"670","245458","HierDyge97xraz","sub01 ","01 ","5","rl","test","74","img/r_c_stripes.png","6","74","color,shape,pattern","137","1",""
"null","246461","HierDyge97xraz","sub01 ","01 ","5","feedback","test","null","","","na","","137","",""
"694.0000000000291","247156","HierDyge97xraz","sub01 ","01 ","5","rl","test","72","img/b_c_dots.png","1","65","color,shape,pattern","138","0",""
"null","248159","HierDyge97xraz","sub01 ","01 ","5","feedback","test","null","","","na","","138","",""
"585.0000000000291","248745","HierDyge97xraz","sub01 ","01 ","5","rl","test","70","img/b_s_stripes.png","4","70","color,shape,pattern","139","1",""
"null","249748","HierDyge97xraz","sub01 ","01 ","5","feedback","test","null","","","na","","139","",""
"853","250603","HierDyge97xraz","sub01 ","01 ","5","rl","test","68","img/b_s_dots.png","3","68","color,shape,pattern","140","1",""
"null","251605","HierDyge97xraz","sub01 ","01 ","5","feedback","test","null","","","na","","140","",""
"373","251979","HierDyge97xraz","sub01 ","01 ","5","rl","test","70","img/b_s_stripes.png","4","70","color,shape,pattern","141","1",""
"null","252982","HierDyge97xraz","sub01 ","01 ","5","feedback","test","null","","","na","","141","",""
"702","253685","HierDyge97xraz","sub01 ","01 ","5","rl","test","75","img/r_s_dots.png","7","75","color,shape,pattern","142","1",""
"null","254688","HierDyge97xraz","sub01 ","01 ","5","feedback","test","null","","","na","","142","",""
"500.9999999999709","255191","HierDyge97xraz","sub01 ","01 ","5","rl","test","76","img/r_s_stripes.png","8","76","color,shape,pattern","143","1",""
"null","256194","HierDyge97xraz","sub01 ","01 ","5","feedback","test","null","","","na","","143","",""
"806","257002","HierDyge97xraz","sub01 ","01 ","5","rl","test","72","img/r_c_dots.png","5","72","color,shape,pattern","144","1",""
"null","258004","HierDyge97xraz","sub01 ","01 ","5","feedback","test","null","","","na","","144","",""
"855.0000000000291","258861","HierDyge97xraz","sub01 ","01 ","5","rl","test","83","img/b_c_stripes.png","2","83","color,shape,pattern","145","1",""
"null","259862","HierDyge97xraz","sub01 ","01 ","5","feedback","test","null","","","na","","145","",""
"524","260388","HierDyge97xraz","sub01 ","01 ","5","rl","test","83","img/b_c_stripes.png","2","83","color,shape,pattern","146","1",""
"null","261390","HierDyge97xraz","sub01 ","01 ","5","feedback","test","null","","","na","","146","",""
"1256.0000000000582","262647","HierDyge97xraz","sub01 ","01 ","5","rl","test","72","img/r_c_dots.png","5","72","color,shape,pattern","147","1",""
"null","263650","HierDyge97xraz","sub01 ","01 ","5","feedback","test","null","","","na","","147","",""
"862","264513","HierDyge97xraz","sub01 ","01 ","5","rl","test","75","img/b_s_dots.png","3","68","color,shape,pattern","148","0",""
"null","265515","HierDyge97xraz","sub01 ","01 ","5","feedback","test","null","","","na","","148","",""
"566.0000000000582","266083","HierDyge97xraz","sub01 ","01 ","5","rl","test","68","img/r_s_dots.png","7","75","color,shape,pattern","149","0",""
"null","267085","HierDyge97xraz","sub01 ","01 ","5","feedback","test","null","","","na","","149","",""
"1649","268736","HierDyge97xraz","sub01 ","01 ","5","rl","test","74","img/r_c_stripes.png","6","74","color,shape,pattern","150","1",""
"null","269738","HierDyge97xraz","sub01 ","01 ","5","feedback","test","null","","","na","","150","",""
"715","270454","HierDyge97xraz","sub01 ","01 ","5","rl","test","76","img/r_s_stripes.png","8","76","color,shape,pattern","151","1",""
"null","271457","HierDyge97xraz","sub01 ","01 ","5","feedback","test","null","","","na","","151","",""
"797.0000000000582","272256","HierDyge97xraz","sub01 ","01 ","5","rl","test","65","img/b_c_dots.png","1","65","color,shape,pattern","152","1",""
"null","273258","HierDyge97xraz","sub01 ","01 ","5","feedback","test","null","","","na","","152","",""
"654","273913","HierDyge97xraz","sub01 ","01 ","5","rl","test","70","img/b_s_stripes.png","4","70","color,shape,pattern","153","1",""
"null","274916","HierDyge97xraz","sub01 ","01 ","5","feedback","test","null","","","na","","153","",""
"434","275351","HierDyge97xraz","sub01 ","01 ","5","rl","test","76","img/r_s_stripes.png","8","76","color,shape,pattern","154","1",""
"null","276354","HierDyge97xraz","sub01 ","01 ","5","feedback","test","null","","","na","","154","",""
"1058","277413","HierDyge97xraz","sub01 ","01 ","5","rl","test","83","img/b_c_stripes.png","2","83","color,shape,pattern","155","1",""
"null","278415","HierDyge97xraz","sub01 ","01 ","5","feedback","test","null","","","na","","155","",""
"415","278831","HierDyge97xraz","sub01 ","01 ","5","rl","test","74","img/r_c_stripes.png","6","74","color,shape,pattern","156","1",""
"null","279834","HierDyge97xraz","sub01 ","01 ","5","feedback","test","null","","","na","","156","",""
"689","280525","HierDyge97xraz","sub01 ","01 ","5","rl","test","72","img/r_c_dots.png","5","72","color,shape,pattern","157","1",""
"null","281527","HierDyge97xraz","sub01 ","01 ","5","feedback","test","null","","","na","","157","",""
"579","282107","HierDyge97xraz","sub01 ","01 ","5","rl","test","75","img/r_s_dots.png","7","75","color,shape,pattern","158","1",""
"null","283109","HierDyge97xraz","sub01 ","01 ","5","feedback","test","null","","","na","","158","",""
"899","284009","HierDyge97xraz","sub01 ","01 ","5","rl","test","68","img/b_s_dots.png","3","68","color,shape,pattern","159","1",""
"null","285012","HierDyge97xraz","sub01 ","01 ","5","feedback","test","null","","","na","","159","",""
"825","285838","HierDyge97xraz","sub01 ","01 ","5","rl","test","83","img/b_c_stripes.png","2","83","color,shape,pattern","160","1",""
"null","286840","HierDyge97xraz","sub01 ","01 ","5","feedback","test","null","","","na","","160","",""
"836","287677","HierDyge97xraz","sub01 ","01 ","5","rl","test","68","img/b_s_dots.png","3","68","color,shape,pattern","161","1",""
"null","288680","HierDyge97xraz","sub01 ","01 ","5","feedback","test","null","","","na","","161","",""
"743","289424","HierDyge97xraz","sub01 ","01 ","5","rl","test","65","img/b_c_dots.png","1","65","color,shape,pattern","162","1",""
"null","290427","HierDyge97xraz","sub01 ","01 ","5","feedback","test","null","","","na","","162","",""
"458","290886","HierDyge97xraz","sub01 ","01 ","5","rl","test","65","img/b_c_dots.png","1","65","color,shape,pattern","163","1",""
"null","291888","HierDyge97xraz","sub01 ","01 ","5","feedback","test","null","","","na","","163","",""
"625","292516","HierDyge97xraz","sub01 ","01 ","5","rl","test","72","img/r_c_dots.png","5","72","color,shape,pattern","164","1",""
"null","293518","HierDyge97xraz","sub01 ","01 ","5","feedback","test","null","","","na","","164","",""
"596","294117","HierDyge97xraz","sub01 ","01 ","5","rl","test","70","img/b_s_stripes.png","4","70","color,shape,pattern","165","1",""
"null","295119","HierDyge97xraz","sub01 ","01 ","5","feedback","test","null","","","na","","165","",""
"630","295750","HierDyge97xraz","sub01 ","01 ","5","rl","test","75","img/r_s_dots.png","7","75","color,shape,pattern","166","1",""
"null","296753","HierDyge97xraz","sub01 ","01 ","5","feedback","test","null","","","na","","166","",""
"631.0000000000582","297385","HierDyge97xraz","sub01 ","01 ","5","rl","test","72","img/b_c_dots.png","1","65","color,shape,pattern","167","0",""
"null","298387","HierDyge97xraz","sub01 ","01 ","5","feedback","test","null","","","na","","167","",""
"796","299185","HierDyge97xraz","sub01 ","01 ","5","rl","test","76","img/r_s_stripes.png","8","76","color,shape,pattern","168","1",""
"null","300188","HierDyge97xraz","sub01 ","01 ","5","feedback","test","null","","","na","","168","",""
"583.0000000000582","300772","HierDyge97xraz","sub01 ","01 ","5","rl","test","74","img/r_c_stripes.png","6","74","color,shape,pattern","169","1",""
"null","301775","HierDyge97xraz","sub01 ","01 ","5","feedback","test","null","","","na","","169","",""
"514","302291","HierDyge97xraz","sub01 ","01 ","5","rl","test","76","img/r_s_stripes.png","8","76","color,shape,pattern","170","1",""
"null","303294","HierDyge97xraz","sub01 ","01 ","5","feedback","test","null","","","na","","170","",""
"551","303846","HierDyge97xraz","sub01 ","01 ","5","rl","test","83","img/b_c_stripes.png","2","83","color,shape,pattern","171","1",""
"null","304849","HierDyge97xraz","sub01 ","01 ","5","feedback","test","null","","","na","","171","",""
"574","305424","HierDyge97xraz","sub01 ","01 ","5","rl","test","75","img/r_c_stripes.png","6","74","color,shape,pattern","172","0",""
"null","306427","HierDyge97xraz","sub01 ","01 ","5","feedback","test","null","","","na","","172","",""
"649","307077","HierDyge97xraz","sub01 ","01 ","5","rl","test","74","img/r_c_stripes.png","6","74","color,shape,pattern","173","1",""
"null","308080","HierDyge97xraz","sub01 ","01 ","5","feedback","test","null","","","na","","173","",""
"588","308669","HierDyge97xraz","sub01 ","01 ","5","rl","test","76","img/b_s_stripes.png","4","70","color,shape,pattern","174","0",""
"null","309672","HierDyge97xraz","sub01 ","01 ","5","feedback","test","null","","","na","","174","",""
"1493","311166","HierDyge97xraz","sub01 ","01 ","5","rl","test","83","img/b_c_stripes.png","2","83","color,shape,pattern","175","1",""
"null","312169","HierDyge97xraz","sub01 ","01 ","5","feedback","test","null","","","na","","175","",""
"758.9999999999418","312930","HierDyge97xraz","sub01 ","01 ","5","rl","test","68","img/b_s_dots.png","3","68","color,shape,pattern","176","1",""
"null","313932","HierDyge97xraz","sub01 ","01 ","5","feedback","test","null","","","na","","176","",""
"1186.9999999999418","315120","HierDyge97xraz","sub01 ","01 ","5","rl","test","75","img/r_s_dots.png","7","75","color,shape,pattern","177","1",""
"null","316122","HierDyge97xraz","sub01 ","01 ","5","feedback","test","null","","","na","","177","",""
"593","316717","HierDyge97xraz","sub01 ","01 ","5","rl","test","72","img/r_c_dots.png","5","72","color,shape,pattern","178","1",""
"null","317720","HierDyge97xraz","sub01 ","01 ","5","feedback","test","null","","","na","","178","",""
"547","318268","HierDyge97xraz","sub01 ","01 ","5","rl","test","76","img/b_s_stripes.png","4","70","color,shape,pattern","179","0",""
"null","319271","HierDyge97xraz","sub01 ","01 ","5","feedback","test","null","","","na","","179","",""
"763","320036","HierDyge97xraz","sub01 ","01 ","5","rl","test","74","img/r_c_dots.png","5","72","color,shape,pattern","180","0",""
"null","321038","HierDyge97xraz","sub01 ","01 ","5","feedback","test","null","","","na","","180","",""
"666","321706","HierDyge97xraz","sub01 ","01 ","5","rl","test","75","img/r_s_dots.png","7","75","color,shape,pattern","181","1",""
"null","322709","HierDyge97xraz","sub01 ","01 ","5","feedback","test","null","","","na","","181","",""
"661","323372","HierDyge97xraz","sub01 ","01 ","5","rl","test","65","img/b_c_dots.png","1","65","color,shape,pattern","182","1",""
"null","324375","HierDyge97xraz","sub01 ","01 ","5","feedback","test","null","","","na","","182","",""
"854","325230","HierDyge97xraz","sub01 ","01 ","5","rl","test","68","img/b_s_dots.png","3","68","color,shape,pattern","183","1",""
"null","326233","HierDyge97xraz","sub01 ","01 ","5","feedback","test","null","","","na","","183","",""
"513","326747","HierDyge97xraz","sub01 ","01 ","5","rl","test","70","img/b_s_stripes.png","4","70","color,shape,pattern","184","1",""
"null","327748","HierDyge97xraz","sub01 ","01 ","5","feedback","test","null","","","na","","184","",""
"499","328249","HierDyge97xraz","sub01 ","01 ","5","rl","test","76","img/r_s_stripes.png","8","76","color,shape,pattern","185","1",""
"null","329251","HierDyge97xraz","sub01 ","01 ","5","feedback","test","null","","","na","","185","",""
"952","330205","HierDyge97xraz","sub01 ","01 ","5","rl","test","72","img/r_c_dots.png","5","72","color,shape,pattern","186","1",""
"null","331208","HierDyge97xraz","sub01 ","01 ","5","feedback","test","null","","","na","","186","",""
"557.0000000000582","331767","HierDyge97xraz","sub01 ","01 ","5","rl","test","83","img/b_c_stripes.png","2","83","color,shape,pattern","187","1",""
"null","332768","HierDyge97xraz","sub01 ","01 ","5","feedback","test","null","","","na","","187","",""
"942","333712","HierDyge97xraz","sub01 ","01 ","5","rl","test","74","img/r_c_stripes.png","6","74","color,shape,pattern","188","1",""
"null","334714","HierDyge97xraz","sub01 ","01 ","5","feedback","test","null","","","na","","188","",""
"702","335418","HierDyge97xraz","sub01 ","01 ","5","rl","test","68","img/b_s_dots.png","3","68","color,shape,pattern","189","1",""
"null","336420","HierDyge97xraz","sub01 ","01 ","5","feedback","test","null","","","na","","189","",""
"594.9999999999418","337016","HierDyge97xraz","sub01 ","01 ","5","rl","test","65","img/b_c_dots.png","1","65","color,shape,pattern","190","1",""
"null","338019","HierDyge97xraz","sub01 ","01 ","5","feedback","test","null","","","na","","190","",""
"828","338848","HierDyge97xraz","sub01 ","01 ","5","rl","test","75","img/r_s_dots.png","7","75","color,shape,pattern","191","1",""
"null","339851","HierDyge97xraz","sub01 ","01 ","5","feedback","test","null","","","na","","191","",""
"611","340463","HierDyge97xraz","sub01 ","01 ","5","rl","test","76","img/r_s_stripes.png","8","76","color,shape,pattern","192","1",""
"null","341466","HierDyge97xraz","sub01 ","01 ","5","feedback","test","null","","","na","","192","",""
"457","341925","HierDyge97xraz","sub01 ","01 ","5","rl","test","76","img/r_s_stripes.png","8","76","color,shape,pattern","193","1",""
"null","342927","HierDyge97xraz","sub01 ","01 ","5","feedback","test","null","","","na","","193","",""
"667","343596","HierDyge97xraz","sub01 ","01 ","5","rl","test","75","img/r_s_dots.png","7","75","color,shape,pattern","194","1",""
"null","344598","HierDyge97xraz","sub01 ","01 ","5","feedback","test","null","","","na","","194","",""
"556","345156","HierDyge97xraz","sub01 ","01 ","5","rl","test","74","img/b_s_dots.png","3","68","color,shape,pattern","195","0",""
"null","346158","HierDyge97xraz","sub01 ","01 ","5","feedback","test","null","","","na","","195","",""
"922.0000000000582","347082","HierDyge97xraz","sub01 ","01 ","5","rl","test","72","img/r_c_dots.png","5","72","color,shape,pattern","196","1",""
"null","348085","HierDyge97xraz","sub01 ","01 ","5","feedback","test","null","","","na","","196","",""
"467","348552","HierDyge97xraz","sub01 ","01 ","5","rl","test","76","img/b_s_stripes.png","4","70","color,shape,pattern","197","0",""
"null","349555","HierDyge97xraz","sub01 ","01 ","5","feedback","test","null","","","na","","197","",""
"724","350281","HierDyge97xraz","sub01 ","01 ","5","rl","test","83","img/b_c_stripes.png","2","83","color,shape,pattern","198","1",""
"null","351283","HierDyge97xraz","sub01 ","01 ","5","feedback","test","null","","","na","","198","",""
"643","351927","HierDyge97xraz","sub01 ","01 ","5","rl","test","65","img/b_c_dots.png","1","65","color,shape,pattern","199","1",""
"null","352930","HierDyge97xraz","sub01 ","01 ","5","feedback","test","null","","","na","","199","",""
"1227.0000000000582","354158","HierDyge97xraz","sub01 ","01 ","5","rl","test","74","img/r_c_stripes.png","6","74","color,shape,pattern","200","1",""
"null","355161","HierDyge97xraz","sub01 ","01 ","5","feedback","test","null","","","na","","200","",""
"665","355827","HierDyge97xraz","sub01 ","01 ","5","rl","test","72","img/r_c_dots.png","5","72","color,shape,pattern","201","1",""
"null","356829","HierDyge97xraz","sub01 ","01 ","5","feedback","test","null","","","na","","201","",""
"1833","358663","HierDyge97xraz","sub01 ","01 ","5","rl","test","70","img/r_s_dots.png","7","75","color,shape,pattern","202","0",""
"null","359666","HierDyge97xraz","sub01 ","01 ","5","feedback","test","null","","","na","","202","",""
"1070","360737","HierDyge97xraz","sub01 ","01 ","5","rl","test","74","img/r_c_stripes.png","6","74","color,shape,pattern","203","1",""
"null","361740","HierDyge97xraz","sub01 ","01 ","5","feedback","test","null","","","na","","203","",""
"555","362296","HierDyge97xraz","sub01 ","01 ","5","rl","test","65","img/b_c_dots.png","1","65","color,shape,pattern","204","1",""
"null","363299","HierDyge97xraz","sub01 ","01 ","5","feedback","test","null","","","na","","204","",""
"600","363900","HierDyge97xraz","sub01 ","01 ","5","rl","test","83","img/b_c_stripes.png","2","83","color,shape,pattern","205","1",""
"null","364903","HierDyge97xraz","sub01 ","01 ","5","feedback","test","null","","","na","","205","",""
"513","365417","HierDyge97xraz","sub01 ","01 ","5","rl","test","76","img/r_s_stripes.png","8","76","color,shape,pattern","206","1",""
"null","366420","HierDyge97xraz","sub01 ","01 ","5","feedback","test","null","","","na","","206","",""
"978","367400","HierDyge97xraz","sub01 ","01 ","5","rl","test","68","img/b_c_stripes.png","2","83","color,shape,pattern","207","0",""
"null","368402","HierDyge97xraz","sub01 ","01 ","5","feedback","test","null","","","na","","207","",""
"597.9999999999418","369001","HierDyge97xraz","sub01 ","01 ","5","rl","test","70","img/b_s_stripes.png","4","70","color,shape,pattern","208","1",""
"null","370004","HierDyge97xraz","sub01 ","01 ","5","feedback","test","null","","","na","","208","",""
"613","370618","HierDyge97xraz","sub01 ","01 ","5","rl","test","68","img/b_s_dots.png","3","68","color,shape,pattern","209","1",""
"null","371621","HierDyge97xraz","sub01 ","01 ","5","feedback","test","null","","","na","","209","",""
"598","372220","HierDyge97xraz","sub01 ","01 ","5","rl","test","68","img/b_s_dots.png","3","68","color,shape,pattern","210","1",""
"null","373223","HierDyge97xraz","sub01 ","01 ","5","feedback","test","null","","","na","","210","",""
"887","374111","HierDyge97xraz","sub01 ","01 ","5","rl","test","83","img/b_c_stripes.png","2","83","color,shape,pattern","211","1",""
"null","375114","HierDyge97xraz","sub01 ","01 ","5","feedback","test","null","","","na","","211","",""
"503","375618","HierDyge97xraz","sub01 ","01 ","5","rl","test","76","img/r_s_stripes.png","8","76","color,shape,pattern","212","1",""
"null","376619","HierDyge97xraz","sub01 ","01 ","5","feedback","test","null","","","na","","212","",""
"925.0000000000582","377545","HierDyge97xraz","sub01 ","01 ","5","rl","test","65","img/b_c_dots.png","1","65","color,shape,pattern","213","1",""
"null","378548","HierDyge97xraz","sub01 ","01 ","5","feedback","test","null","","","na","","213","",""
"599","379148","HierDyge97xraz","sub01 ","01 ","5","rl","test","75","img/r_s_dots.png","7","75","color,shape,pattern","214","1",""
"null","380151","HierDyge97xraz","sub01 ","01 ","5","feedback","test","null","","","na","","214","",""
"679.0000000000582","380831","HierDyge97xraz","sub01 ","01 ","5","rl","test","72","img/r_c_dots.png","5","72","color,shape,pattern","215","1",""
"null","381834","HierDyge97xraz","sub01 ","01 ","5","feedback","test","null","","","na","","215","",""
"531","382366","HierDyge97xraz","sub01 ","01 ","5","rl","test","70","img/r_s_stripes.png","8","76","color,shape,pattern","216","0",""
"null","383369","HierDyge97xraz","sub01 ","01 ","5","feedback","test","null","","","na","","216","",""
"514.0000000000582","383884","HierDyge97xraz","sub01 ","01 ","5","rl","test","76","img/b_s_stripes.png","4","70","color,shape,pattern","217","0",""
"null","384887","HierDyge97xraz","sub01 ","01 ","5","feedback","test","null","","","na","","217","",""
"673","385561","HierDyge97xraz","sub01 ","01 ","5","rl","test","74","img/r_c_stripes.png","6","74","color,shape,pattern","218","1",""
"null","386564","HierDyge97xraz","sub01 ","01 ","5","feedback","test","null","","","na","","218","",""
"533","387098","HierDyge97xraz","sub01 ","01 ","5","rl","test","74","img/r_c_stripes.png","6","74","color,shape,pattern","219","1",""
"null","388101","HierDyge97xraz","sub01 ","01 ","5","feedback","test","null","","","na","","219","",""
"972","389074","HierDyge97xraz","sub01 ","01 ","5","rl","test","70","img/b_s_stripes.png","4","70","color,shape,pattern","220","1",""
"null","390077","HierDyge97xraz","sub01 ","01 ","5","feedback","test","null","","","na","","220","",""
"641","390719","HierDyge97xraz","sub01 ","01 ","5","rl","test","65","img/b_c_dots.png","1","65","color,shape,pattern","221","1",""
"null","391721","HierDyge97xraz","sub01 ","01 ","5","feedback","test","null","","","na","","221","",""
"549","392272","HierDyge97xraz","sub01 ","01 ","5","rl","test","70","img/b_s_stripes.png","4","70","color,shape,pattern","222","1",""
"null","393275","HierDyge97xraz","sub01 ","01 ","5","feedback","test","null","","","na","","222","",""
"635","393911","HierDyge97xraz","sub01 ","01 ","5","rl","test","83","img/b_s_dots.png","3","68","color,shape,pattern","223","0",""
"null","394913","HierDyge97xraz","sub01 ","01 ","5","feedback","test","null","","","na","","223","",""
"1088","396002","HierDyge97xraz","sub01 ","01 ","5","rl","test","75","img/r_s_dots.png","7","75","color,shape,pattern","224","1",""
"null","397004","HierDyge97xraz","sub01 ","01 ","5","feedback","test","null","","","na","","224","",""
"575.9999999999418","397580","HierDyge97xraz","sub01 ","01 ","5","rl","test","72","img/r_c_dots.png","5","72","color,shape,pattern","225","1",""
"null","398583","HierDyge97xraz","sub01 ","01 ","5","feedback","test","null","","","na","","225","",""
"601","399186","HierDyge97xraz","sub01 ","01 ","5","rl","test","83","img/b_c_stripes.png","2","83","color,shape,pattern","226","1",""
"null","400189","HierDyge97xraz","sub01 ","01 ","5","feedback","test","null","","","na","","226","",""
"613","400804","HierDyge97xraz","sub01 ","01 ","5","rl","test","68","img/b_s_dots.png","3","68","color,shape,pattern","227","1",""
"null","401806","HierDyge97xraz","sub01 ","01 ","5","feedback","test","null","","","na","","227","",""
"912","402720","HierDyge97xraz","sub01 ","01 ","5","rl","test","70","img/r_s_stripes.png","8","76","color,shape,pattern","228","0",""
"null","403722","HierDyge97xraz","sub01 ","01 ","5","feedback","test","null","","","na","","228","",""
"822","404546","HierDyge97xraz","sub01 ","01 ","5","rl","test","75","img/r_s_dots.png","7","75","color,shape,pattern","229","1",""
"null","405549","HierDyge97xraz","sub01 ","01 ","5","feedback","test","null","","","na","","229","",""
"996","406547","HierDyge97xraz","sub01 ","01 ","5","rl","test","74","img/r_c_stripes.png","6","74","color,shape,pattern","230","1",""
"null","407550","HierDyge97xraz","sub01 ","01 ","5","feedback","test","null","","","na","","230","",""
"689","408240","HierDyge97xraz","sub01 ","01 ","5","rl","test","72","img/r_c_dots.png","5","72","color,shape,pattern","231","1",""
"null","409243","HierDyge97xraz","sub01 ","01 ","5","feedback","test","null","","","na","","231","",""
"655","409899","HierDyge97xraz","sub01 ","01 ","5","rl","test","74","img/r_c_stripes.png","6","74","color,shape,pattern","232","1",""
"null","410901","HierDyge97xraz","sub01 ","01 ","5","feedback","test","null","","","na","","232","",""
"1144.9999999999418","412048","HierDyge97xraz","sub01 ","01 ","5","rl","test","83","img/b_c_stripes.png","2","83","color,shape,pattern","233","1",""
"null","413050","HierDyge97xraz","sub01 ","01 ","5","feedback","test","null","","","na","","233","",""
"782.9999999999418","413834","HierDyge97xraz","sub01 ","01 ","5","rl","test","65","img/b_c_dots.png","1","65","color,shape,pattern","234","1",""
"null","414837","HierDyge97xraz","sub01 ","01 ","5","feedback","test","null","","","na","","234","",""
"560","415398","HierDyge97xraz","sub01 ","01 ","5","rl","test","65","img/b_c_dots.png","1","65","color,shape,pattern","235","1",""
"null","416401","HierDyge97xraz","sub01 ","01 ","5","feedback","test","null","","","na","","235","",""
"534","416936","HierDyge97xraz","sub01 ","01 ","5","rl","test","76","img/r_s_stripes.png","8","76","color,shape,pattern","236","1",""
"null","417938","HierDyge97xraz","sub01 ","01 ","5","feedback","test","null","","","na","","236","",""
"406","418346","HierDyge97xraz","sub01 ","01 ","5","rl","test","70","img/b_s_stripes.png","4","70","color,shape,pattern","237","1",""
"null","419349","HierDyge97xraz","sub01 ","01 ","5","feedback","test","null","","","na","","237","",""
"620","419970","HierDyge97xraz","sub01 ","01 ","5","rl","test","65","img/b_c_dots.png","1","65","color,shape,pattern","238","1",""
"null","420973","HierDyge97xraz","sub01 ","01 ","5","feedback","test","null","","","na","","238","",""
"1012","421986","HierDyge97xraz","sub01 ","01 ","5","rl","test","75","img/r_s_dots.png","7","75","color,shape,pattern","239","1",""
"null","422988","HierDyge97xraz","sub01 ","01 ","5","feedback","test","null","","","na","","239","",""
"638","423628","HierDyge97xraz","sub01 ","01 ","5","rl","test","72","img/r_c_dots.png","5","72","color,shape,pattern","240","1",""
"null","424630","HierDyge97xraz","sub01 ","01 ","5","feedback","test","null","","","na","","240","",""
"769","425401","HierDyge97xraz","sub01 ","01 ","5","rl","test","68","img/b_s_dots.png","3","68","color,shape,pattern","241","1",""
"null","426403","HierDyge97xraz","sub01 ","01 ","5","feedback","test","null","","","na","","241","",""
"504","426909","HierDyge97xraz","sub01 ","01 ","5","rl","test","70","img/r_s_stripes.png","8","76","color,shape,pattern","242","0",""
"null","427911","HierDyge97xraz","sub01 ","01 ","5","feedback","test","null","","","na","","242","",""
"946","428859","HierDyge97xraz","sub01 ","01 ","5","rl","test","68","img/b_s_dots.png","3","68","color,shape,pattern","243","1",""
"null","429861","HierDyge97xraz","sub01 ","01 ","5","feedback","test","null","","","na","","243","",""
"798","430660","HierDyge97xraz","sub01 ","01 ","5","rl","test","75","img/r_s_dots.png","7","75","color,shape,pattern","244","1",""
"null","431663","HierDyge97xraz","sub01 ","01 ","5","feedback","test","null","","","na","","244","",""
"729","432393","HierDyge97xraz","sub01 ","01 ","5","rl","test","70","img/b_s_stripes.png","4","70","color,shape,pattern","245","1",""
"null","433396","HierDyge97xraz","sub01 ","01 ","5","feedback","test","null","","","na","","245","",""
"682","434079","HierDyge97xraz","sub01 ","01 ","5","rl","test","83","img/b_c_stripes.png","2","83","color,shape,pattern","246","1",""
"null","435081","HierDyge97xraz","sub01 ","01 ","5","feedback","test","null","","","na","","246","",""
"1166","436249","HierDyge97xraz","sub01 ","01 ","5","rl","test","74","img/r_c_stripes.png","6","74","color,shape,pattern","247","1",""
"null","437251","HierDyge97xraz","sub01 ","01 ","5","feedback","test","null","","","na","","247","",""
"1032","438284","HierDyge97xraz","sub01 ","01 ","5","rl","test","74","img/r_s_dots.png","7","75","color,shape,pattern","248","0",""
"null","439287","HierDyge97xraz","sub01 ","01 ","5","feedback","test","null","","","na","","248","",""
"2578","441904","HierDyge97xraz","sub01 ","01 ","5","","","","","","","","","","{""Q0"":""6""}"
"11210","453119","HierDyge97xraz","sub01 ","01 ","5","","","","","","","","","","{""Q0"":""Instinct ""}"
"651.0000000000582","453770","HierDyge97xraz","sub01 ","01 ","5","","","","","","","","","",""
