"rt","time_elapsed","subject","subID","group","day","trialType","phase","key_press","stim","stimNum","corrresp","hierarchy","trialNum","corr","responses"
"3587.5","3596","HierDyjl1ptu1g","sub14","02","04","","","","","","","","","",""
"","5240","HierDyjl1ptu1g","sub14","02","04","fullscreen","","","","","","","","",""
"2932.7999999970198","8175","HierDyjl1ptu1g","sub14","02","04","","prac","","","","","","","",""
"554.8999999910593","8734","HierDyjl1ptu1g","sub14","02","04","","","32","","","","","","",""
"543.1000000089407","9278","HierDyjl1ptu1g","sub14","02","04","","prac","","","","","","","",""
"1772.2000000029802","11053","HierDyjl1ptu1g","sub14","02","04","rl","test","70","img/p_d_diag.png","4","70","color,shape,pattern","1","1",""
"null","12060","HierDyjl1ptu1g","sub14","02","04","feedback","test","null","","","na","","1","",""
"1423.9000000059605","13486","HierDyjl1ptu1g","sub14","02","04","rl","test","74","img/o_t_diag.png","6","74","color,shape,pattern","2","1",""
"null","14492","HierDyjl1ptu1g","sub14","02","04","feedback","test","null","","","na","","2","",""
"560.5","15055","HierDyjl1ptu1g","sub14","02","04","rl","test","72","img/o_t_check.png","5","72","color,shape,pattern","3","1",""
"null","16062","HierDyjl1ptu1g","sub14","02","04","feedback","test","null","","","na","","3","",""
"657.7000000029802","16721","HierDyjl1ptu1g","sub14","02","04","rl","test","83","img/p_t_diag.png","2","83","color,shape,pattern","4","1",""
"null","17728","HierDyjl1ptu1g","sub14","02","04","feedback","test","null","","","na","","4","",""
"569.5999999940395","18299","HierDyjl1ptu1g","sub14","02","04","rl","test","65","img/p_t_check.png","1","65","color,shape,pattern","5","1",""
"null","19301","HierDyjl1ptu1g","sub14","02","04","feedback","test","null","","","na","","5","",""
"825","20128","HierDyjl1ptu1g","sub14","02","04","rl","test","75","img/o_d_check.png","7","75","color,shape,pattern","6","1",""
"null","21135","HierDyjl1ptu1g","sub14","02","04","feedback","test","null","","","na","","6","",""
"826.6000000089407","21964","HierDyjl1ptu1g","sub14","02","04","rl","test","83","img/p_t_diag.png","2","83","color,shape,pattern","7","1",""
"null","22967","HierDyjl1ptu1g","sub14","02","04","feedback","test","null","","","na","","7","",""
"635.4000000059605","23604","HierDyjl1ptu1g","sub14","02","04","rl","test","68","img/p_d_check.png","3","68","color,shape,pattern","8","1",""
"null","24611","HierDyjl1ptu1g","sub14","02","04","feedback","test","null","","","na","","8","",""
"682.9000000059605","25295","HierDyjl1ptu1g","sub14","02","04","rl","test","74","img/o_d_diag.png","8","76","color,shape,pattern","9","0",""
"null","26297","HierDyjl1ptu1g","sub14","02","04","feedback","test","null","","","na","","9","",""
"971.6000000089407","27271","HierDyjl1ptu1g","sub14","02","04","rl","test","76","img/o_d_diag.png","8","76","color,shape,pattern","10","1",""
"null","28273","HierDyjl1ptu1g","sub14","02","04","feedback","test","null","","","na","","10","",""
"575.5","28850","HierDyjl1ptu1g","sub14","02","04","rl","test","72","img/o_t_check.png","5","72","color,shape,pattern","11","1",""
"null","29857","HierDyjl1ptu1g","sub14","02","04","feedback","test","null","","","na","","11","",""
"859.9000000059605","30718","HierDyjl1ptu1g","sub14","02","04","rl","test","70","img/p_d_diag.png","4","70","color,shape,pattern","12","1",""
"null","31725","HierDyjl1ptu1g","sub14","02","04","feedback","test","null","","","na","","12","",""
"736.8999999910593","32463","HierDyjl1ptu1g","sub14","02","04","rl","test","68","img/p_d_check.png","3","68","color,shape,pattern","13","1",""
"null","33469","HierDyjl1ptu1g","sub14","02","04","feedback","test","null","","","na","","13","",""
"826.2000000029802","34297","HierDyjl1ptu1g","sub14","02","04","rl","test","75","img/o_d_check.png","7","75","color,shape,pattern","14","1",""
"null","35301","HierDyjl1ptu1g","sub14","02","04","feedback","test","null","","","na","","14","",""
"575.2999999970198","35878","HierDyjl1ptu1g","sub14","02","04","rl","test","74","img/o_t_diag.png","6","74","color,shape,pattern","15","1",""
"null","36884","HierDyjl1ptu1g","sub14","02","04","feedback","test","null","","","na","","15","",""
"782.7000000029802","37668","HierDyjl1ptu1g","sub14","02","04","rl","test","65","img/p_t_check.png","1","65","color,shape,pattern","16","1",""
"null","38675","HierDyjl1ptu1g","sub14","02","04","feedback","test","null","","","na","","16","",""
"599.9000000059605","39276","HierDyjl1ptu1g","sub14","02","04","rl","test","74","img/o_t_diag.png","6","74","color,shape,pattern","17","1",""
"null","40283","HierDyjl1ptu1g","sub14","02","04","feedback","test","null","","","na","","17","",""
"778.2999999970198","41063","HierDyjl1ptu1g","sub14","02","04","rl","test","70","img/p_d_diag.png","4","70","color,shape,pattern","18","1",""
"null","42070","HierDyjl1ptu1g","sub14","02","04","feedback","test","null","","","na","","18","",""
"610.1000000089407","42681","HierDyjl1ptu1g","sub14","02","04","rl","test","83","img/p_t_diag.png","2","83","color,shape,pattern","19","1",""
"null","43688","HierDyjl1ptu1g","sub14","02","04","feedback","test","null","","","na","","19","",""
"644.2000000029802","44334","HierDyjl1ptu1g","sub14","02","04","rl","test","72","img/p_t_check.png","1","65","color,shape,pattern","20","0",""
"null","45337","HierDyjl1ptu1g","sub14","02","04","feedback","test","null","","","na","","20","",""
"791.4000000059605","46131","HierDyjl1ptu1g","sub14","02","04","rl","test","72","img/o_t_check.png","5","72","color,shape,pattern","21","1",""
"null","47134","HierDyjl1ptu1g","sub14","02","04","feedback","test","null","","","na","","21","",""
"1191.5","48327","HierDyjl1ptu1g","sub14","02","04","rl","test","68","img/p_d_check.png","3","68","color,shape,pattern","22","1",""
"null","49332","HierDyjl1ptu1g","sub14","02","04","feedback","test","null","","","na","","22","",""
"875","50209","HierDyjl1ptu1g","sub14","02","04","rl","test","75","img/o_d_check.png","7","75","color,shape,pattern","23","1",""
"null","51215","HierDyjl1ptu1g","sub14","02","04","feedback","test","null","","","na","","23","",""
"679.5999999940395","51897","HierDyjl1ptu1g","sub14","02","04","rl","test","76","img/o_d_diag.png","8","76","color,shape,pattern","24","1",""
"null","52902","HierDyjl1ptu1g","sub14","02","04","feedback","test","null","","","na","","24","",""
"508.29999999701977","53412","HierDyjl1ptu1g","sub14","02","04","rl","test","76","img/o_d_diag.png","8","76","color,shape,pattern","25","1",""
"null","54418","HierDyjl1ptu1g","sub14","02","04","feedback","test","null","","","na","","25","",""
"813.7000000029802","55234","HierDyjl1ptu1g","sub14","02","04","rl","test","83","img/p_t_diag.png","2","83","color,shape,pattern","26","1",""
"null","56239","HierDyjl1ptu1g","sub14","02","04","feedback","test","null","","","na","","26","",""
"647.6999999880791","56889","HierDyjl1ptu1g","sub14","02","04","rl","test","76","img/o_d_diag.png","8","76","color,shape,pattern","27","1",""
"null","57890","HierDyjl1ptu1g","sub14","02","04","feedback","test","null","","","na","","27","",""
"755.4000000059605","58647","HierDyjl1ptu1g","sub14","02","04","rl","test","68","img/p_d_check.png","3","68","color,shape,pattern","28","1",""
"null","59649","HierDyjl1ptu1g","sub14","02","04","feedback","test","null","","","na","","28","",""
"675.7999999970198","60327","HierDyjl1ptu1g","sub14","02","04","rl","test","70","img/p_d_diag.png","4","70","color,shape,pattern","29","1",""
"null","61329","HierDyjl1ptu1g","sub14","02","04","feedback","test","null","","","na","","29","",""
"670.5999999940395","62001","HierDyjl1ptu1g","sub14","02","04","rl","test","75","img/o_d_check.png","7","75","color,shape,pattern","30","1",""
"null","63003","HierDyjl1ptu1g","sub14","02","04","feedback","test","null","","","na","","30","",""
"562.7000000029802","63568","HierDyjl1ptu1g","sub14","02","04","rl","test","74","img/o_t_diag.png","6","74","color,shape,pattern","31","1",""
"null","64574","HierDyjl1ptu1g","sub14","02","04","feedback","test","null","","","na","","31","",""
"779.5","65355","HierDyjl1ptu1g","sub14","02","04","rl","test","65","img/p_t_check.png","1","65","color,shape,pattern","32","1",""
"null","66362","HierDyjl1ptu1g","sub14","02","04","feedback","test","null","","","na","","32","",""
"693.5","67057","HierDyjl1ptu1g","sub14","02","04","rl","test","75","img/o_d_check.png","7","75","color,shape,pattern","33","1",""
"null","68063","HierDyjl1ptu1g","sub14","02","04","feedback","test","null","","","na","","33","",""
"811.3000000119209","68876","HierDyjl1ptu1g","sub14","02","04","rl","test","72","img/o_t_check.png","5","72","color,shape,pattern","34","1",""
"null","69882","HierDyjl1ptu1g","sub14","02","04","feedback","test","null","","","na","","34","",""
"610.5","70495","HierDyjl1ptu1g","sub14","02","04","rl","test","65","img/p_t_check.png","1","65","color,shape,pattern","35","1",""
"null","71497","HierDyjl1ptu1g","sub14","02","04","feedback","test","null","","","na","","35","",""
"604.8000000119209","72103","HierDyjl1ptu1g","sub14","02","04","rl","test","74","img/o_t_diag.png","6","74","color,shape,pattern","36","1",""
"null","73105","HierDyjl1ptu1g","sub14","02","04","feedback","test","null","","","na","","36","",""
"934.8000000119209","74042","HierDyjl1ptu1g","sub14","02","04","rl","test","70","img/p_d_diag.png","4","70","color,shape,pattern","37","1",""
"null","75043","HierDyjl1ptu1g","sub14","02","04","feedback","test","null","","","na","","37","",""
"716.6000000089407","75762","HierDyjl1ptu1g","sub14","02","04","rl","test","72","img/o_t_check.png","5","72","color,shape,pattern","38","1",""
"null","76769","HierDyjl1ptu1g","sub14","02","04","feedback","test","null","","","na","","38","",""
"665.5","77436","HierDyjl1ptu1g","sub14","02","04","rl","test","70","img/p_d_diag.png","4","70","color,shape,pattern","39","1",""
"null","78438","HierDyjl1ptu1g","sub14","02","04","feedback","test","null","","","na","","39","",""
"716.1000000089407","79156","HierDyjl1ptu1g","sub14","02","04","rl","test","83","img/p_t_diag.png","2","83","color,shape,pattern","40","1",""
"null","80160","HierDyjl1ptu1g","sub14","02","04","feedback","test","null","","","na","","40","",""
"866.6000000089407","81028","HierDyjl1ptu1g","sub14","02","04","rl","test","68","img/p_d_check.png","3","68","color,shape,pattern","41","1",""
"null","82030","HierDyjl1ptu1g","sub14","02","04","feedback","test","null","","","na","","41","",""
"760.5","82792","HierDyjl1ptu1g","sub14","02","04","rl","test","76","img/o_d_diag.png","8","76","color,shape,pattern","42","1",""
"null","83799","HierDyjl1ptu1g","sub14","02","04","feedback","test","null","","","na","","42","",""
"603.0999999940395","84404","HierDyjl1ptu1g","sub14","02","04","rl","test","75","img/o_d_check.png","7","75","color,shape,pattern","43","1",""
"null","85407","HierDyjl1ptu1g","sub14","02","04","feedback","test","null","","","na","","43","",""
"575.0999999940395","85984","HierDyjl1ptu1g","sub14","02","04","rl","test","74","img/o_t_diag.png","6","74","color,shape,pattern","44","1",""
"null","86986","HierDyjl1ptu1g","sub14","02","04","feedback","test","null","","","na","","44","",""
"596.5999999940395","87584","HierDyjl1ptu1g","sub14","02","04","rl","test","65","img/p_t_check.png","1","65","color,shape,pattern","45","1",""
"null","88590","HierDyjl1ptu1g","sub14","02","04","feedback","test","null","","","na","","45","",""
"546.5","89139","HierDyjl1ptu1g","sub14","02","04","rl","test","65","img/p_t_check.png","1","65","color,shape,pattern","46","1",""
"null","90146","HierDyjl1ptu1g","sub14","02","04","feedback","test","null","","","na","","46","",""
"513","90661","HierDyjl1ptu1g","sub14","02","04","rl","test","72","img/o_t_check.png","5","72","color,shape,pattern","47","1",""
"null","91662","HierDyjl1ptu1g","sub14","02","04","feedback","test","null","","","na","","47","",""
"814","92477","HierDyjl1ptu1g","sub14","02","04","rl","test","68","img/p_d_check.png","3","68","color,shape,pattern","48","1",""
"null","93480","HierDyjl1ptu1g","sub14","02","04","feedback","test","null","","","na","","48","",""
"665.2000000029802","94146","HierDyjl1ptu1g","sub14","02","04","rl","test","83","img/p_t_diag.png","2","83","color,shape,pattern","49","1",""
"null","95151","HierDyjl1ptu1g","sub14","02","04","feedback","test","null","","","na","","49","",""
"558.7999999970198","95712","HierDyjl1ptu1g","sub14","02","04","rl","test","68","img/p_d_check.png","3","68","color,shape,pattern","50","1",""
"null","96714","HierDyjl1ptu1g","sub14","02","04","feedback","test","null","","","na","","50","",""
"631.2999999970198","97347","HierDyjl1ptu1g","sub14","02","04","rl","test","72","img/o_t_check.png","5","72","color,shape,pattern","51","1",""
"null","98353","HierDyjl1ptu1g","sub14","02","04","feedback","test","null","","","na","","51","",""
"660.2000000029802","99014","HierDyjl1ptu1g","sub14","02","04","rl","test","83","img/p_t_diag.png","2","83","color,shape,pattern","52","1",""
"null","100021","HierDyjl1ptu1g","sub14","02","04","feedback","test","null","","","na","","52","",""
"646.3999999910593","100669","HierDyjl1ptu1g","sub14","02","04","rl","test","70","img/p_d_diag.png","4","70","color,shape,pattern","53","1",""
"null","101675","HierDyjl1ptu1g","sub14","02","04","feedback","test","null","","","na","","53","",""
"551.2000000029802","102228","HierDyjl1ptu1g","sub14","02","04","rl","test","76","img/o_d_diag.png","8","76","color,shape,pattern","54","1",""
"null","103234","HierDyjl1ptu1g","sub14","02","04","feedback","test","null","","","na","","54","",""
"700.9000000059605","103936","HierDyjl1ptu1g","sub14","02","04","rl","test","74","img/o_t_diag.png","6","74","color,shape,pattern","55","1",""
"null","104943","HierDyjl1ptu1g","sub14","02","04","feedback","test","null","","","na","","55","",""
"700.7999999970198","105645","HierDyjl1ptu1g","sub14","02","04","rl","test","74","img/o_t_diag.png","6","74","color,shape,pattern","56","1",""
"null","106647","HierDyjl1ptu1g","sub14","02","04","feedback","test","null","","","na","","56","",""
"608.5","107257","HierDyjl1ptu1g","sub14","02","04","rl","test","83","img/p_t_diag.png","2","83","color,shape,pattern","57","1",""
"null","108264","HierDyjl1ptu1g","sub14","02","04","feedback","test","null","","","na","","57","",""
"801.7000000029802","109067","HierDyjl1ptu1g","sub14","02","04","rl","test","75","img/o_d_check.png","7","75","color,shape,pattern","58","1",""
"null","110069","HierDyjl1ptu1g","sub14","02","04","feedback","test","null","","","na","","58","",""
"746.4000000059605","110817","HierDyjl1ptu1g","sub14","02","04","rl","test","70","img/p_d_diag.png","4","70","color,shape,pattern","59","1",""
"null","111819","HierDyjl1ptu1g","sub14","02","04","feedback","test","null","","","na","","59","",""
"524.1000000089407","112345","HierDyjl1ptu1g","sub14","02","04","rl","test","68","img/p_d_check.png","3","68","color,shape,pattern","60","1",""
"null","113351","HierDyjl1ptu1g","sub14","02","04","feedback","test","null","","","na","","60","",""
"1189.2999999970198","114542","HierDyjl1ptu1g","sub14","02","04","rl","test","65","img/p_t_check.png","1","65","color,shape,pattern","61","1",""
"null","115548","HierDyjl1ptu1g","sub14","02","04","feedback","test","null","","","na","","61","",""
"752.8999999910593","116303","HierDyjl1ptu1g","sub14","02","04","rl","test","76","img/o_d_diag.png","8","76","color,shape,pattern","62","1",""
"null","117306","HierDyjl1ptu1g","sub14","02","04","feedback","test","null","","","na","","62","",""
"646.8999999910593","117954","HierDyjl1ptu1g","sub14","02","04","rl","test","65","img/p_t_check.png","1","65","color,shape,pattern","63","1",""
"null","118958","HierDyjl1ptu1g","sub14","02","04","feedback","test","null","","","na","","63","",""
"602.1000000089407","119562","HierDyjl1ptu1g","sub14","02","04","rl","test","72","img/o_t_check.png","5","72","color,shape,pattern","64","1",""
"null","120568","HierDyjl1ptu1g","sub14","02","04","feedback","test","null","","","na","","64","",""
"627.8999999910593","121198","HierDyjl1ptu1g","sub14","02","04","rl","test","75","img/o_d_check.png","7","75","color,shape,pattern","65","1",""
"null","122204","HierDyjl1ptu1g","sub14","02","04","feedback","test","null","","","na","","65","",""
"985.5999999940395","123191","HierDyjl1ptu1g","sub14","02","04","rl","test","68","img/p_d_check.png","3","68","color,shape,pattern","66","1",""
"null","124194","HierDyjl1ptu1g","sub14","02","04","feedback","test","null","","","na","","66","",""
"688","124883","HierDyjl1ptu1g","sub14","02","04","rl","test","72","img/o_t_check.png","5","72","color,shape,pattern","67","1",""
"null","125885","HierDyjl1ptu1g","sub14","02","04","feedback","test","null","","","na","","67","",""
"680.7999999970198","126567","HierDyjl1ptu1g","sub14","02","04","rl","test","83","img/p_t_diag.png","2","83","color,shape,pattern","68","1",""
"null","127573","HierDyjl1ptu1g","sub14","02","04","feedback","test","null","","","na","","68","",""
"682.8999999910593","128258","HierDyjl1ptu1g","sub14","02","04","rl","test","75","img/o_d_check.png","7","75","color,shape,pattern","69","1",""
"null","129260","HierDyjl1ptu1g","sub14","02","04","feedback","test","null","","","na","","69","",""
"916.5","130179","HierDyjl1ptu1g","sub14","02","04","rl","test","83","img/o_t_diag.png","6","74","color,shape,pattern","70","0",""
"null","131184","HierDyjl1ptu1g","sub14","02","04","feedback","test","null","","","na","","70","",""
"818.8999999910593","132005","HierDyjl1ptu1g","sub14","02","04","rl","test","70","img/p_d_diag.png","4","70","color,shape,pattern","71","1",""
"null","133011","HierDyjl1ptu1g","sub14","02","04","feedback","test","null","","","na","","71","",""
"628.2999999970198","133641","HierDyjl1ptu1g","sub14","02","04","rl","test","72","img/o_t_check.png","5","72","color,shape,pattern","72","1",""
"null","134643","HierDyjl1ptu1g","sub14","02","04","feedback","test","null","","","na","","72","",""
"627","135272","HierDyjl1ptu1g","sub14","02","04","rl","test","76","img/o_d_diag.png","8","76","color,shape,pattern","73","1",""
"null","136279","HierDyjl1ptu1g","sub14","02","04","feedback","test","null","","","na","","73","",""
"457.90000000596046","136739","HierDyjl1ptu1g","sub14","02","04","rl","test","76","img/o_d_diag.png","8","76","color,shape,pattern","74","1",""
"null","137745","HierDyjl1ptu1g","sub14","02","04","feedback","test","null","","","na","","74","",""
"574.4000000059605","138321","HierDyjl1ptu1g","sub14","02","04","rl","test","70","img/p_d_diag.png","4","70","color,shape,pattern","75","1",""
"null","139327","HierDyjl1ptu1g","sub14","02","04","feedback","test","null","","","na","","75","",""
"543.1000000089407","139873","HierDyjl1ptu1g","sub14","02","04","rl","test","74","img/o_t_diag.png","6","74","color,shape,pattern","76","1",""
"null","140879","HierDyjl1ptu1g","sub14","02","04","feedback","test","null","","","na","","76","",""
"951.7999999970198","141832","HierDyjl1ptu1g","sub14","02","04","rl","test","75","img/o_d_check.png","7","75","color,shape,pattern","77","1",""
"null","142836","HierDyjl1ptu1g","sub14","02","04","feedback","test","null","","","na","","77","",""
"717.2999999970198","143555","HierDyjl1ptu1g","sub14","02","04","rl","test","65","img/p_t_check.png","1","65","color,shape,pattern","78","1",""
"null","144557","HierDyjl1ptu1g","sub14","02","04","feedback","test","null","","","na","","78","",""
"838.0999999940395","145396","HierDyjl1ptu1g","sub14","02","04","rl","test","68","img/p_d_check.png","3","68","color,shape,pattern","79","1",""
"null","146402","HierDyjl1ptu1g","sub14","02","04","feedback","test","null","","","na","","79","",""
"549.2000000029802","146953","HierDyjl1ptu1g","sub14","02","04","rl","test","83","img/p_t_diag.png","2","83","color,shape,pattern","80","1",""
"null","147959","HierDyjl1ptu1g","sub14","02","04","feedback","test","null","","","na","","80","",""
"618.8999999910593","148580","HierDyjl1ptu1g","sub14","02","04","rl","test","76","img/o_d_diag.png","8","76","color,shape,pattern","81","1",""
"null","149582","HierDyjl1ptu1g","sub14","02","04","feedback","test","null","","","na","","81","",""
"934.1999999880791","150518","HierDyjl1ptu1g","sub14","02","04","rl","test","72","img/o_t_check.png","5","72","color,shape,pattern","82","1",""
"null","151521","HierDyjl1ptu1g","sub14","02","04","feedback","test","null","","","na","","82","",""
"626.9000000059605","152150","HierDyjl1ptu1g","sub14","02","04","rl","test","65","img/p_t_check.png","1","65","color,shape,pattern","83","1",""
"null","153152","HierDyjl1ptu1g","sub14","02","04","feedback","test","null","","","na","","83","",""
"654.5","153807","HierDyjl1ptu1g","sub14","02","04","rl","test","70","img/p_d_diag.png","4","70","color,shape,pattern","84","1",""
"null","154814","HierDyjl1ptu1g","sub14","02","04","feedback","test","null","","","na","","84","",""
"596.2999999970198","155411","HierDyjl1ptu1g","sub14","02","04","rl","test","83","img/p_t_diag.png","2","83","color,shape,pattern","85","1",""
"null","156418","HierDyjl1ptu1g","sub14","02","04","feedback","test","null","","","na","","85","",""
"723.5999999940395","157143","HierDyjl1ptu1g","sub14","02","04","rl","test","74","img/o_t_diag.png","6","74","color,shape,pattern","86","1",""
"null","158145","HierDyjl1ptu1g","sub14","02","04","feedback","test","null","","","na","","86","",""
"767","158914","HierDyjl1ptu1g","sub14","02","04","rl","test","68","img/p_d_check.png","3","68","color,shape,pattern","87","1",""
"null","159916","HierDyjl1ptu1g","sub14","02","04","feedback","test","null","","","na","","87","",""
"702.0999999940395","160619","HierDyjl1ptu1g","sub14","02","04","rl","test","74","img/o_t_diag.png","6","74","color,shape,pattern","88","1",""
"null","161626","HierDyjl1ptu1g","sub14","02","04","feedback","test","null","","","na","","88","",""
"1137.0999999940395","162765","HierDyjl1ptu1g","sub14","02","04","rl","test","75","img/o_d_check.png","7","75","color,shape,pattern","89","1",""
"null","163771","HierDyjl1ptu1g","sub14","02","04","feedback","test","null","","","na","","89","",""
"549.5","164323","HierDyjl1ptu1g","sub14","02","04","rl","test","68","img/p_d_check.png","3","68","color,shape,pattern","90","1",""
"null","165329","HierDyjl1ptu1g","sub14","02","04","feedback","test","null","","","na","","90","",""
"514.5","165845","HierDyjl1ptu1g","sub14","02","04","rl","test","83","img/p_t_diag.png","2","83","color,shape,pattern","91","1",""
"null","166848","HierDyjl1ptu1g","sub14","02","04","feedback","test","null","","","na","","91","",""
"964.3999999910593","167815","HierDyjl1ptu1g","sub14","02","04","rl","test","76","img/o_d_diag.png","8","76","color,shape,pattern","92","1",""
"null","168821","HierDyjl1ptu1g","sub14","02","04","feedback","test","null","","","na","","92","",""
"565","169388","HierDyjl1ptu1g","sub14","02","04","rl","test","75","img/o_d_check.png","7","75","color,shape,pattern","93","1",""
"null","170395","HierDyjl1ptu1g","sub14","02","04","feedback","test","null","","","na","","93","",""
"545.0999999940395","170941","HierDyjl1ptu1g","sub14","02","04","rl","test","75","img/o_d_check.png","7","75","color,shape,pattern","94","1",""
"null","171943","HierDyjl1ptu1g","sub14","02","04","feedback","test","null","","","na","","94","",""
"743.9000000059605","172689","HierDyjl1ptu1g","sub14","02","04","rl","test","72","img/o_t_check.png","5","72","color,shape,pattern","95","1",""
"null","173695","HierDyjl1ptu1g","sub14","02","04","feedback","test","null","","","na","","95","",""
"731.4000000059605","174428","HierDyjl1ptu1g","sub14","02","04","rl","test","70","img/p_d_diag.png","4","70","color,shape,pattern","96","1",""
"null","175432","HierDyjl1ptu1g","sub14","02","04","feedback","test","null","","","na","","96","",""
"753","176186","HierDyjl1ptu1g","sub14","02","04","rl","test","65","img/p_t_check.png","1","65","color,shape,pattern","97","1",""
"null","177191","HierDyjl1ptu1g","sub14","02","04","feedback","test","null","","","na","","97","",""
"820.0999999940395","178012","HierDyjl1ptu1g","sub14","02","04","rl","test","72","img/o_t_check.png","5","72","color,shape,pattern","98","1",""
"null","179014","HierDyjl1ptu1g","sub14","02","04","feedback","test","null","","","na","","98","",""
"1110","180126","HierDyjl1ptu1g","sub14","02","04","rl","test","68","img/p_d_check.png","3","68","color,shape,pattern","99","1",""
"null","181129","HierDyjl1ptu1g","sub14","02","04","feedback","test","null","","","na","","99","",""
"636.0999999940395","181765","HierDyjl1ptu1g","sub14","02","04","rl","test","65","img/p_t_check.png","1","65","color,shape,pattern","100","1",""
"null","182770","HierDyjl1ptu1g","sub14","02","04","feedback","test","null","","","na","","100","",""
"559.5999999940395","183331","HierDyjl1ptu1g","sub14","02","04","rl","test","68","img/p_d_check.png","3","68","color,shape,pattern","101","1",""
"null","184336","HierDyjl1ptu1g","sub14","02","04","feedback","test","null","","","na","","101","",""
"1106.2999999970198","185444","HierDyjl1ptu1g","sub14","02","04","rl","test","74","img/o_t_diag.png","6","74","color,shape,pattern","102","1",""
"null","186449","HierDyjl1ptu1g","sub14","02","04","feedback","test","null","","","na","","102","",""
"741.2999999970198","187192","HierDyjl1ptu1g","sub14","02","04","rl","test","70","img/p_d_diag.png","4","70","color,shape,pattern","103","1",""
"null","188198","HierDyjl1ptu1g","sub14","02","04","feedback","test","null","","","na","","103","",""
"566.8999999910593","188767","HierDyjl1ptu1g","sub14","02","04","rl","test","70","img/p_d_diag.png","4","70","color,shape,pattern","104","1",""
"null","189769","HierDyjl1ptu1g","sub14","02","04","feedback","test","null","","","na","","104","",""
"541.0999999940395","190311","HierDyjl1ptu1g","sub14","02","04","rl","test","83","img/p_t_diag.png","2","83","color,shape,pattern","105","1",""
"null","191313","HierDyjl1ptu1g","sub14","02","04","feedback","test","null","","","na","","105","",""
"701.2000000029802","192016","HierDyjl1ptu1g","sub14","02","04","rl","test","65","img/p_t_check.png","1","65","color,shape,pattern","106","1",""
"null","193021","HierDyjl1ptu1g","sub14","02","04","feedback","test","null","","","na","","106","",""
"659.7999999970198","193682","HierDyjl1ptu1g","sub14","02","04","rl","test","76","img/o_d_diag.png","8","76","color,shape,pattern","107","1",""
"null","194683","HierDyjl1ptu1g","sub14","02","04","feedback","test","null","","","na","","107","",""
"531.7000000029802","195216","HierDyjl1ptu1g","sub14","02","04","rl","test","76","img/o_d_diag.png","8","76","color,shape,pattern","108","1",""
"null","196219","HierDyjl1ptu1g","sub14","02","04","feedback","test","null","","","na","","108","",""
"480.70000000298023","196701","HierDyjl1ptu1g","sub14","02","04","rl","test","75","img/o_d_check.png","7","75","color,shape,pattern","109","1",""
"null","197703","HierDyjl1ptu1g","sub14","02","04","feedback","test","null","","","na","","109","",""
"793.5","198498","HierDyjl1ptu1g","sub14","02","04","rl","test","83","img/p_t_diag.png","2","83","color,shape,pattern","110","1",""
"null","199505","HierDyjl1ptu1g","sub14","02","04","feedback","test","null","","","na","","110","",""
"604.8999999910593","200111","HierDyjl1ptu1g","sub14","02","04","rl","test","74","img/o_t_diag.png","6","74","color,shape,pattern","111","1",""
"null","201113","HierDyjl1ptu1g","sub14","02","04","feedback","test","null","","","na","","111","",""
"803.5","201919","HierDyjl1ptu1g","sub14","02","04","rl","test","70","img/p_d_diag.png","4","70","color,shape,pattern","112","1",""
"null","202924","HierDyjl1ptu1g","sub14","02","04","feedback","test","null","","","na","","112","",""
"612.2000000029802","203537","HierDyjl1ptu1g","sub14","02","04","rl","test","72","img/o_t_check.png","5","72","color,shape,pattern","113","1",""
"null","204540","HierDyjl1ptu1g","sub14","02","04","feedback","test","null","","","na","","113","",""
"701.2999999970198","205243","HierDyjl1ptu1g","sub14","02","04","rl","test","68","img/p_d_check.png","3","68","color,shape,pattern","114","1",""
"null","206244","HierDyjl1ptu1g","sub14","02","04","feedback","test","null","","","na","","114","",""
"630.1999999880791","206876","HierDyjl1ptu1g","sub14","02","04","rl","test","74","img/o_t_diag.png","6","74","color,shape,pattern","115","1",""
"null","207881","HierDyjl1ptu1g","sub14","02","04","feedback","test","null","","","na","","115","",""
"710.0999999940395","208593","HierDyjl1ptu1g","sub14","02","04","rl","test","75","img/o_d_check.png","7","75","color,shape,pattern","116","1",""
"null","209599","HierDyjl1ptu1g","sub14","02","04","feedback","test","null","","","na","","116","",""
"585","210185","HierDyjl1ptu1g","sub14","02","04","rl","test","65","img/p_t_check.png","1","65","color,shape,pattern","117","1",""
"null","211192","HierDyjl1ptu1g","sub14","02","04","feedback","test","null","","","na","","117","",""
"851.7000000029802","212045","HierDyjl1ptu1g","sub14","02","04","rl","test","76","img/o_d_diag.png","8","76","color,shape,pattern","118","1",""
"null","213052","HierDyjl1ptu1g","sub14","02","04","feedback","test","null","","","na","","118","",""
"696.1999999880791","213750","HierDyjl1ptu1g","sub14","02","04","rl","test","83","img/p_t_diag.png","2","83","color,shape,pattern","119","1",""
"null","214756","HierDyjl1ptu1g","sub14","02","04","feedback","test","null","","","na","","119","",""
"570.3999999910593","215328","HierDyjl1ptu1g","sub14","02","04","rl","test","76","img/o_d_diag.png","8","76","color,shape,pattern","120","1",""
"null","216334","HierDyjl1ptu1g","sub14","02","04","feedback","test","null","","","na","","120","",""
"590","216926","HierDyjl1ptu1g","sub14","02","04","rl","test","72","img/o_t_check.png","5","72","color,shape,pattern","121","1",""
"null","217928","HierDyjl1ptu1g","sub14","02","04","feedback","test","null","","","na","","121","",""
"724.2999999970198","218654","HierDyjl1ptu1g","sub14","02","04","rl","test","83","img/p_t_diag.png","2","83","color,shape,pattern","122","1",""
"null","219658","HierDyjl1ptu1g","sub14","02","04","feedback","test","null","","","na","","122","",""
"728.7999999970198","220389","HierDyjl1ptu1g","sub14","02","04","rl","test","75","img/o_d_check.png","7","75","color,shape,pattern","123","1",""
"null","221395","HierDyjl1ptu1g","sub14","02","04","feedback","test","null","","","na","","123","",""
"799.6000000089407","222197","HierDyjl1ptu1g","sub14","02","04","rl","test","68","img/p_d_check.png","3","68","color,shape,pattern","124","1",""
"null","223202","HierDyjl1ptu1g","sub14","02","04","feedback","test","null","","","na","","124","",""
"614.7000000029802","223818","HierDyjl1ptu1g","sub14","02","04","rl","test","72","img/o_t_check.png","5","72","color,shape,pattern","125","1",""
"null","224825","HierDyjl1ptu1g","sub14","02","04","feedback","test","null","","","na","","125","",""
"724.7000000029802","225551","HierDyjl1ptu1g","sub14","02","04","rl","test","70","img/p_d_diag.png","4","70","color,shape,pattern","126","1",""
"null","226557","HierDyjl1ptu1g","sub14","02","04","feedback","test","null","","","na","","126","",""
"829.3000000119209","227388","HierDyjl1ptu1g","sub14","02","04","rl","test","74","img/o_t_diag.png","6","74","color,shape,pattern","127","1",""
"null","228390","HierDyjl1ptu1g","sub14","02","04","feedback","test","null","","","na","","127","",""
"818.5999999940395","229210","HierDyjl1ptu1g","sub14","02","04","rl","test","65","img/p_t_check.png","1","65","color,shape,pattern","128","1",""
"null","230216","HierDyjl1ptu1g","sub14","02","04","feedback","test","null","","","na","","128","",""
"561.4000000059605","230779","HierDyjl1ptu1g","sub14","02","04","rl","test","75","img/o_d_check.png","7","75","color,shape,pattern","129","1",""
"null","231785","HierDyjl1ptu1g","sub14","02","04","feedback","test","null","","","na","","129","",""
"571.5","232358","HierDyjl1ptu1g","sub14","02","04","rl","test","65","img/p_t_check.png","1","65","color,shape,pattern","130","1",""
"null","233364","HierDyjl1ptu1g","sub14","02","04","feedback","test","null","","","na","","130","",""
"682.7000000029802","234048","HierDyjl1ptu1g","sub14","02","04","rl","test","70","img/p_d_diag.png","4","70","color,shape,pattern","131","1",""
"null","235054","HierDyjl1ptu1g","sub14","02","04","feedback","test","null","","","na","","131","",""
"634.0999999940395","235690","HierDyjl1ptu1g","sub14","02","04","rl","test","74","img/o_t_diag.png","6","74","color,shape,pattern","132","1",""
"null","236692","HierDyjl1ptu1g","sub14","02","04","feedback","test","null","","","na","","132","",""
"608","237302","HierDyjl1ptu1g","sub14","02","04","rl","test","68","img/p_d_check.png","3","68","color,shape,pattern","133","1",""
"null","238304","HierDyjl1ptu1g","sub14","02","04","feedback","test","null","","","na","","133","",""
"707.8999999910593","239013","HierDyjl1ptu1g","sub14","02","04","rl","test","76","img/o_d_diag.png","8","76","color,shape,pattern","134","1",""
"null","240018","HierDyjl1ptu1g","sub14","02","04","feedback","test","null","","","na","","134","",""
"567","240587","HierDyjl1ptu1g","sub14","02","04","rl","test","83","img/p_t_diag.png","2","83","color,shape,pattern","135","1",""
"null","241594","HierDyjl1ptu1g","sub14","02","04","feedback","test","null","","","na","","135","",""
"491.20000000298023","242086","HierDyjl1ptu1g","sub14","02","04","rl","test","72","img/o_t_check.png","5","72","color,shape,pattern","136","1",""
"null","243092","HierDyjl1ptu1g","sub14","02","04","feedback","test","null","","","na","","136","",""
"617.7999999970198","243711","HierDyjl1ptu1g","sub14","02","04","rl","test","72","img/o_t_check.png","5","72","color,shape,pattern","137","1",""
"null","244713","HierDyjl1ptu1g","sub14","02","04","feedback","test","null","","","na","","137","",""
"598.3000000119209","245313","HierDyjl1ptu1g","sub14","02","04","rl","test","83","img/p_t_diag.png","2","83","color,shape,pattern","138","1",""
"null","246318","HierDyjl1ptu1g","sub14","02","04","feedback","test","null","","","na","","138","",""
"701.2000000029802","247021","HierDyjl1ptu1g","sub14","02","04","rl","test","74","img/o_t_diag.png","6","74","color,shape,pattern","139","1",""
"null","248027","HierDyjl1ptu1g","sub14","02","04","feedback","test","null","","","na","","139","",""
"635.4000000059605","248664","HierDyjl1ptu1g","sub14","02","04","rl","test","65","img/p_t_check.png","1","65","color,shape,pattern","140","1",""
"null","249670","HierDyjl1ptu1g","sub14","02","04","feedback","test","null","","","na","","140","",""
"608.5999999940395","250280","HierDyjl1ptu1g","sub14","02","04","rl","test","68","img/p_d_check.png","3","68","color,shape,pattern","141","1",""
"null","251282","HierDyjl1ptu1g","sub14","02","04","feedback","test","null","","","na","","141","",""
"447.6000000089407","251732","HierDyjl1ptu1g","sub14","02","04","rl","test","75","img/o_d_check.png","7","75","color,shape,pattern","142","1",""
"null","252737","HierDyjl1ptu1g","sub14","02","04","feedback","test","null","","","na","","142","",""
"688.5","253427","HierDyjl1ptu1g","sub14","02","04","rl","test","70","img/p_d_diag.png","4","70","color,shape,pattern","143","1",""
"null","254432","HierDyjl1ptu1g","sub14","02","04","feedback","test","null","","","na","","143","",""
"1006.0999999940395","255440","HierDyjl1ptu1g","sub14","02","04","rl","test","83","img/p_t_diag.png","2","83","color,shape,pattern","144","1",""
"null","256446","HierDyjl1ptu1g","sub14","02","04","feedback","test","null","","","na","","144","",""
"689.7000000029802","257137","HierDyjl1ptu1g","sub14","02","04","rl","test","70","img/p_d_diag.png","4","70","color,shape,pattern","145","1",""
"null","258140","HierDyjl1ptu1g","sub14","02","04","feedback","test","null","","","na","","145","",""
"632.2999999970198","258773","HierDyjl1ptu1g","sub14","02","04","rl","test","75","img/o_d_check.png","7","75","color,shape,pattern","146","1",""
"null","259778","HierDyjl1ptu1g","sub14","02","04","feedback","test","null","","","na","","146","",""
"1293.5","261074","HierDyjl1ptu1g","sub14","02","04","rl","test","76","img/o_d_diag.png","8","76","color,shape,pattern","147","1",""
"null","262079","HierDyjl1ptu1g","sub14","02","04","feedback","test","null","","","na","","147","",""
"561.0999999940395","262641","HierDyjl1ptu1g","sub14","02","04","rl","test","76","img/o_d_diag.png","8","76","color,shape,pattern","148","1",""
"null","263645","HierDyjl1ptu1g","sub14","02","04","feedback","test","null","","","na","","148","",""
"610.1999999880791","264257","HierDyjl1ptu1g","sub14","02","04","rl","test","72","img/o_t_check.png","5","72","color,shape,pattern","149","1",""
"null","265262","HierDyjl1ptu1g","sub14","02","04","feedback","test","null","","","na","","149","",""
"590.6999999880791","265855","HierDyjl1ptu1g","sub14","02","04","rl","test","65","img/p_t_check.png","1","65","color,shape,pattern","150","1",""
"null","266857","HierDyjl1ptu1g","sub14","02","04","feedback","test","null","","","na","","150","",""
"854.7000000029802","267713","HierDyjl1ptu1g","sub14","02","04","rl","test","70","img/p_d_check.png","3","68","color,shape,pattern","151","0",""
"null","268715","HierDyjl1ptu1g","sub14","02","04","feedback","test","null","","","na","","151","",""
"763.5999999940395","269480","HierDyjl1ptu1g","sub14","02","04","rl","test","75","img/o_d_check.png","7","75","color,shape,pattern","152","1",""
"null","270487","HierDyjl1ptu1g","sub14","02","04","feedback","test","null","","","na","","152","",""
"779.7000000029802","271268","HierDyjl1ptu1g","sub14","02","04","rl","test","74","img/o_t_diag.png","6","74","color,shape,pattern","153","1",""
"null","272271","HierDyjl1ptu1g","sub14","02","04","feedback","test","null","","","na","","153","",""
"906.7000000029802","273179","HierDyjl1ptu1g","sub14","02","04","rl","test","68","img/p_d_check.png","3","68","color,shape,pattern","154","1",""
"null","274186","HierDyjl1ptu1g","sub14","02","04","feedback","test","null","","","na","","154","",""
"553.8999999910593","274741","HierDyjl1ptu1g","sub14","02","04","rl","test","83","img/p_t_diag.png","2","83","color,shape,pattern","155","1",""
"null","275747","HierDyjl1ptu1g","sub14","02","04","feedback","test","null","","","na","","155","",""
"742.5","276492","HierDyjl1ptu1g","sub14","02","04","rl","test","72","img/o_t_check.png","5","72","color,shape,pattern","156","1",""
"null","277498","HierDyjl1ptu1g","sub14","02","04","feedback","test","null","","","na","","156","",""
"540.8999999910593","278041","HierDyjl1ptu1g","sub14","02","04","rl","test","74","img/o_t_diag.png","6","74","color,shape,pattern","157","1",""
"null","279047","HierDyjl1ptu1g","sub14","02","04","feedback","test","null","","","na","","157","",""
"751.0999999940395","279799","HierDyjl1ptu1g","sub14","02","04","rl","test","83","img/p_t_check.png","1","65","color,shape,pattern","158","0",""
"null","280806","HierDyjl1ptu1g","sub14","02","04","feedback","test","null","","","na","","158","",""
"727.4000000059605","281535","HierDyjl1ptu1g","sub14","02","04","rl","test","68","img/p_d_check.png","3","68","color,shape,pattern","159","1",""
"null","282539","HierDyjl1ptu1g","sub14","02","04","feedback","test","null","","","na","","159","",""
"600.5999999940395","283142","HierDyjl1ptu1g","sub14","02","04","rl","test","70","img/p_d_diag.png","4","70","color,shape,pattern","160","1",""
"null","284145","HierDyjl1ptu1g","sub14","02","04","feedback","test","null","","","na","","160","",""
"977.2999999970198","285124","HierDyjl1ptu1g","sub14","02","04","rl","test","70","img/p_d_diag.png","4","70","color,shape,pattern","161","1",""
"null","286129","HierDyjl1ptu1g","sub14","02","04","feedback","test","null","","","na","","161","",""
"577.3000000119209","286708","HierDyjl1ptu1g","sub14","02","04","rl","test","76","img/o_d_diag.png","8","76","color,shape,pattern","162","1",""
"null","287710","HierDyjl1ptu1g","sub14","02","04","feedback","test","null","","","na","","162","",""
"658.5","288371","HierDyjl1ptu1g","sub14","02","04","rl","test","65","img/p_t_check.png","1","65","color,shape,pattern","163","1",""
"null","289376","HierDyjl1ptu1g","sub14","02","04","feedback","test","null","","","na","","163","",""
"414.29999999701977","289792","HierDyjl1ptu1g","sub14","02","04","rl","test","83","img/p_t_diag.png","2","83","color,shape,pattern","164","1",""
"null","290796","HierDyjl1ptu1g","sub14","02","04","feedback","test","null","","","na","","164","",""
"583.9000000059605","291382","HierDyjl1ptu1g","sub14","02","04","rl","test","76","img/o_d_diag.png","8","76","color,shape,pattern","165","1",""
"null","292386","HierDyjl1ptu1g","sub14","02","04","feedback","test","null","","","na","","165","",""
"573.7000000029802","292962","HierDyjl1ptu1g","sub14","02","04","rl","test","74","img/o_t_diag.png","6","74","color,shape,pattern","166","1",""
"null","293966","HierDyjl1ptu1g","sub14","02","04","feedback","test","null","","","na","","166","",""
"684.0999999940395","294651","HierDyjl1ptu1g","sub14","02","04","rl","test","75","img/o_d_check.png","7","75","color,shape,pattern","167","1",""
"null","295653","HierDyjl1ptu1g","sub14","02","04","feedback","test","null","","","na","","167","",""
"626.3999999910593","296281","HierDyjl1ptu1g","sub14","02","04","rl","test","72","img/o_t_check.png","5","72","color,shape,pattern","168","1",""
"null","297287","HierDyjl1ptu1g","sub14","02","04","feedback","test","null","","","na","","168","",""
"662.2000000029802","297951","HierDyjl1ptu1g","sub14","02","04","rl","test","75","img/o_d_check.png","7","75","color,shape,pattern","169","1",""
"null","298956","HierDyjl1ptu1g","sub14","02","04","feedback","test","null","","","na","","169","",""
"577","299534","HierDyjl1ptu1g","sub14","02","04","rl","test","65","img/p_t_check.png","1","65","color,shape,pattern","170","1",""
"null","300540","HierDyjl1ptu1g","sub14","02","04","feedback","test","null","","","na","","170","",""
"569.3000000119209","301111","HierDyjl1ptu1g","sub14","02","04","rl","test","76","img/o_d_diag.png","8","76","color,shape,pattern","171","1",""
"null","302113","HierDyjl1ptu1g","sub14","02","04","feedback","test","null","","","na","","171","",""
"906.8999999910593","303021","HierDyjl1ptu1g","sub14","02","04","rl","test","70","img/p_d_diag.png","4","70","color,shape,pattern","172","1",""
"null","304027","HierDyjl1ptu1g","sub14","02","04","feedback","test","null","","","na","","172","",""
"549.8000000119209","304578","HierDyjl1ptu1g","sub14","02","04","rl","test","83","img/p_t_diag.png","2","83","color,shape,pattern","173","1",""
"null","305580","HierDyjl1ptu1g","sub14","02","04","feedback","test","null","","","na","","173","",""
"613","306195","HierDyjl1ptu1g","sub14","02","04","rl","test","68","img/p_d_check.png","3","68","color,shape,pattern","174","1",""
"null","307200","HierDyjl1ptu1g","sub14","02","04","feedback","test","null","","","na","","174","",""
"1085.7000000029802","308287","HierDyjl1ptu1g","sub14","02","04","rl","test","72","img/o_t_check.png","5","72","color,shape,pattern","175","1",""
"null","309292","HierDyjl1ptu1g","sub14","02","04","feedback","test","null","","","na","","175","",""
"1000.7999999970198","310295","HierDyjl1ptu1g","sub14","02","04","rl","test","68","img/p_d_check.png","3","68","color,shape,pattern","176","1",""
"null","311301","HierDyjl1ptu1g","sub14","02","04","feedback","test","null","","","na","","176","",""
"524","311827","HierDyjl1ptu1g","sub14","02","04","rl","test","74","img/p_t_diag.png","2","83","color,shape,pattern","177","0",""
"null","312831","HierDyjl1ptu1g","sub14","02","04","feedback","test","null","","","na","","177","",""
"589.3000000119209","313422","HierDyjl1ptu1g","sub14","02","04","rl","test","65","img/p_t_check.png","1","65","color,shape,pattern","178","1",""
"null","314428","HierDyjl1ptu1g","sub14","02","04","feedback","test","null","","","na","","178","",""
"626","315056","HierDyjl1ptu1g","sub14","02","04","rl","test","74","img/o_t_diag.png","6","74","color,shape,pattern","179","1",""
"null","316062","HierDyjl1ptu1g","sub14","02","04","feedback","test","null","","","na","","179","",""
"553.8999999910593","316617","HierDyjl1ptu1g","sub14","02","04","rl","test","74","img/o_t_diag.png","6","74","color,shape,pattern","180","1",""
"null","317619","HierDyjl1ptu1g","sub14","02","04","feedback","test","null","","","na","","180","",""
"775.8000000119209","318397","HierDyjl1ptu1g","sub14","02","04","rl","test","76","img/o_d_diag.png","8","76","color,shape,pattern","181","1",""
"null","319403","HierDyjl1ptu1g","sub14","02","04","feedback","test","null","","","na","","181","",""
"677.2000000029802","320082","HierDyjl1ptu1g","sub14","02","04","rl","test","75","img/o_d_check.png","7","75","color,shape,pattern","182","1",""
"null","321088","HierDyjl1ptu1g","sub14","02","04","feedback","test","null","","","na","","182","",""
"1263.2999999970198","322353","HierDyjl1ptu1g","sub14","02","04","rl","test","72","img/o_t_check.png","5","72","color,shape,pattern","183","1",""
"null","323357","HierDyjl1ptu1g","sub14","02","04","feedback","test","null","","","na","","183","",""
"664.2999999970198","324023","HierDyjl1ptu1g","sub14","02","04","rl","test","70","img/p_d_diag.png","4","70","color,shape,pattern","184","1",""
"null","325025","HierDyjl1ptu1g","sub14","02","04","feedback","test","null","","","na","","184","",""
"1330.5","326357","HierDyjl1ptu1g","sub14","02","04","rl","test","70","img/o_d_diag.png","8","76","color,shape,pattern","185","0",""
"null","327362","HierDyjl1ptu1g","sub14","02","04","feedback","test","null","","","na","","185","",""
"975.1000000089407","328339","HierDyjl1ptu1g","sub14","02","04","rl","test","76","img/p_d_diag.png","4","70","color,shape,pattern","186","0",""
"null","329345","HierDyjl1ptu1g","sub14","02","04","feedback","test","null","","","na","","186","",""
"939","330285","HierDyjl1ptu1g","sub14","02","04","rl","test","68","img/p_d_check.png","3","68","color,shape,pattern","187","1",""
"null","331292","HierDyjl1ptu1g","sub14","02","04","feedback","test","null","","","na","","187","",""
"582.5","331876","HierDyjl1ptu1g","sub14","02","04","rl","test","72","img/o_t_check.png","5","72","color,shape,pattern","188","1",""
"null","332882","HierDyjl1ptu1g","sub14","02","04","feedback","test","null","","","na","","188","",""
"1095.2000000029802","333980","HierDyjl1ptu1g","sub14","02","04","rl","test","70","img/p_d_diag.png","4","70","color,shape,pattern","189","1",""
"null","334985","HierDyjl1ptu1g","sub14","02","04","feedback","test","null","","","na","","189","",""
"818.9000000059605","335805","HierDyjl1ptu1g","sub14","02","04","rl","test","74","img/o_t_diag.png","6","74","color,shape,pattern","190","1",""
"null","336811","HierDyjl1ptu1g","sub14","02","04","feedback","test","null","","","na","","190","",""
"624","337437","HierDyjl1ptu1g","sub14","02","04","rl","test","83","img/p_t_diag.png","2","83","color,shape,pattern","191","1",""
"null","338443","HierDyjl1ptu1g","sub14","02","04","feedback","test","null","","","na","","191","",""
"561","339006","HierDyjl1ptu1g","sub14","02","04","rl","test","83","img/p_t_diag.png","2","83","color,shape,pattern","192","1",""
"null","340008","HierDyjl1ptu1g","sub14","02","04","feedback","test","null","","","na","","192","",""
"578.1000000089407","340588","HierDyjl1ptu1g","sub14","02","04","rl","test","65","img/p_t_check.png","1","65","color,shape,pattern","193","1",""
"null","341590","HierDyjl1ptu1g","sub14","02","04","feedback","test","null","","","na","","193","",""
"672.5","342264","HierDyjl1ptu1g","sub14","02","04","rl","test","72","img/o_t_check.png","5","72","color,shape,pattern","194","1",""
"null","343266","HierDyjl1ptu1g","sub14","02","04","feedback","test","null","","","na","","194","",""
"626.8000000119209","343895","HierDyjl1ptu1g","sub14","02","04","rl","test","75","img/o_d_check.png","7","75","color,shape,pattern","195","1",""
"null","344897","HierDyjl1ptu1g","sub14","02","04","feedback","test","null","","","na","","195","",""
"550.1999999880791","345449","HierDyjl1ptu1g","sub14","02","04","rl","test","76","img/o_d_diag.png","8","76","color,shape,pattern","196","1",""
"null","346453","HierDyjl1ptu1g","sub14","02","04","feedback","test","null","","","na","","196","",""
"738.2000000029802","347192","HierDyjl1ptu1g","sub14","02","04","rl","test","65","img/p_t_check.png","1","65","color,shape,pattern","197","1",""
"null","348198","HierDyjl1ptu1g","sub14","02","04","feedback","test","null","","","na","","197","",""
"451.79999999701977","348651","HierDyjl1ptu1g","sub14","02","04","rl","test","74","img/o_t_diag.png","6","74","color,shape,pattern","198","1",""
"null","349653","HierDyjl1ptu1g","sub14","02","04","feedback","test","null","","","na","","198","",""
"739.1999999880791","350394","HierDyjl1ptu1g","sub14","02","04","rl","test","68","img/p_d_check.png","3","68","color,shape,pattern","199","1",""
"null","351399","HierDyjl1ptu1g","sub14","02","04","feedback","test","null","","","na","","199","",""
"700.3000000119209","352101","HierDyjl1ptu1g","sub14","02","04","rl","test","75","img/o_d_check.png","7","75","color,shape,pattern","200","1",""
"null","353107","HierDyjl1ptu1g","sub14","02","04","feedback","test","null","","","na","","200","",""
"603.2000000029802","353712","HierDyjl1ptu1g","sub14","02","04","rl","test","75","img/o_d_check.png","7","75","color,shape,pattern","201","1",""
"null","354714","HierDyjl1ptu1g","sub14","02","04","feedback","test","null","","","na","","201","",""
"617.2999999970198","355333","HierDyjl1ptu1g","sub14","02","04","rl","test","68","img/p_d_check.png","3","68","color,shape,pattern","202","1",""
"null","356335","HierDyjl1ptu1g","sub14","02","04","feedback","test","null","","","na","","202","",""
"754.8999999910593","357092","HierDyjl1ptu1g","sub14","02","04","rl","test","70","img/p_d_diag.png","4","70","color,shape,pattern","203","1",""
"null","358098","HierDyjl1ptu1g","sub14","02","04","feedback","test","null","","","na","","203","",""
"617.5","358717","HierDyjl1ptu1g","sub14","02","04","rl","test","65","img/p_t_check.png","1","65","color,shape,pattern","204","1",""
"null","359719","HierDyjl1ptu1g","sub14","02","04","feedback","test","null","","","na","","204","",""
"619.5","360341","HierDyjl1ptu1g","sub14","02","04","rl","test","76","img/o_d_diag.png","8","76","color,shape,pattern","205","1",""
"null","361345","HierDyjl1ptu1g","sub14","02","04","feedback","test","null","","","na","","205","",""
"520.5999999940395","361868","HierDyjl1ptu1g","sub14","02","04","rl","test","74","img/o_t_diag.png","6","74","color,shape,pattern","206","1",""
"null","362874","HierDyjl1ptu1g","sub14","02","04","feedback","test","null","","","na","","206","",""
"659.4000000059605","363536","HierDyjl1ptu1g","sub14","02","04","rl","test","83","img/p_t_diag.png","2","83","color,shape,pattern","207","1",""
"null","364540","HierDyjl1ptu1g","sub14","02","04","feedback","test","null","","","na","","207","",""
"793.7999999970198","365335","HierDyjl1ptu1g","sub14","02","04","rl","test","72","img/o_t_check.png","5","72","color,shape,pattern","208","1",""
"null","366342","HierDyjl1ptu1g","sub14","02","04","feedback","test","null","","","na","","208","",""
"584.7999999970198","366929","HierDyjl1ptu1g","sub14","02","04","rl","test","70","img/p_d_diag.png","4","70","color,shape,pattern","209","1",""
"null","367935","HierDyjl1ptu1g","sub14","02","04","feedback","test","null","","","na","","209","",""
"774.8999999910593","368712","HierDyjl1ptu1g","sub14","02","04","rl","test","72","img/o_t_check.png","5","72","color,shape,pattern","210","1",""
"null","369714","HierDyjl1ptu1g","sub14","02","04","feedback","test","null","","","na","","210","",""
"1002.1000000089407","370718","HierDyjl1ptu1g","sub14","02","04","rl","test","65","img/p_t_check.png","1","65","color,shape,pattern","211","1",""
"null","371722","HierDyjl1ptu1g","sub14","02","04","feedback","test","null","","","na","","211","",""
"548.2999999970198","372273","HierDyjl1ptu1g","sub14","02","04","rl","test","74","img/o_t_diag.png","6","74","color,shape,pattern","212","1",""
"null","373275","HierDyjl1ptu1g","sub14","02","04","feedback","test","null","","","na","","212","",""
"1034.300000011921","374311","HierDyjl1ptu1g","sub14","02","04","rl","test","68","img/p_d_check.png","3","68","color,shape,pattern","213","1",""
"null","375316","HierDyjl1ptu1g","sub14","02","04","feedback","test","null","","","na","","213","",""
"557.4000000059605","375875","HierDyjl1ptu1g","sub14","02","04","rl","test","75","img/o_d_check.png","7","75","color,shape,pattern","214","1",""
"null","376877","HierDyjl1ptu1g","sub14","02","04","feedback","test","null","","","na","","214","",""
"580.5999999940395","377460","HierDyjl1ptu1g","sub14","02","04","rl","test","74","img/o_d_diag.png","8","76","color,shape,pattern","215","0",""
"null","378463","HierDyjl1ptu1g","sub14","02","04","feedback","test","null","","","na","","215","",""
"760.6000000089407","379226","HierDyjl1ptu1g","sub14","02","04","rl","test","83","img/p_t_diag.png","2","83","color,shape,pattern","216","1",""
"null","380229","HierDyjl1ptu1g","sub14","02","04","feedback","test","null","","","na","","216","",""
"1086.7999999970198","381318","HierDyjl1ptu1g","sub14","02","04","rl","test","68","img/p_d_check.png","3","68","color,shape,pattern","217","1",""
"null","382323","HierDyjl1ptu1g","sub14","02","04","feedback","test","null","","","na","","217","",""
"595.6999999880791","382921","HierDyjl1ptu1g","sub14","02","04","rl","test","83","img/p_t_diag.png","2","83","color,shape,pattern","218","1",""
"null","383927","HierDyjl1ptu1g","sub14","02","04","feedback","test","null","","","na","","218","",""
"623.9000000059605","384553","HierDyjl1ptu1g","sub14","02","04","rl","test","75","img/o_d_check.png","7","75","color,shape,pattern","219","1",""
"null","385555","HierDyjl1ptu1g","sub14","02","04","feedback","test","null","","","na","","219","",""
"616.0999999940395","386173","HierDyjl1ptu1g","sub14","02","04","rl","test","75","img/o_d_check.png","7","75","color,shape,pattern","220","1",""
"null","387179","HierDyjl1ptu1g","sub14","02","04","feedback","test","null","","","na","","220","",""
"1295.2999999970198","388476","HierDyjl1ptu1g","sub14","02","04","rl","test","70","img/p_d_diag.png","4","70","color,shape,pattern","221","1",""
"null","389483","HierDyjl1ptu1g","sub14","02","04","feedback","test","null","","","na","","221","",""
"509.79999999701977","389994","HierDyjl1ptu1g","sub14","02","04","rl","test","76","img/o_d_diag.png","8","76","color,shape,pattern","222","1",""
"null","390998","HierDyjl1ptu1g","sub14","02","04","feedback","test","null","","","na","","222","",""
"632.9000000059605","391633","HierDyjl1ptu1g","sub14","02","04","rl","test","72","img/o_t_check.png","5","72","color,shape,pattern","223","1",""
"null","392635","HierDyjl1ptu1g","sub14","02","04","feedback","test","null","","","na","","223","",""
"677.2000000029802","393314","HierDyjl1ptu1g","sub14","02","04","rl","test","70","img/p_d_diag.png","4","70","color,shape,pattern","224","1",""
"null","394320","HierDyjl1ptu1g","sub14","02","04","feedback","test","null","","","na","","224","",""
"1377.8999999910593","395700","HierDyjl1ptu1g","sub14","02","04","rl","test","65","img/p_t_check.png","1","65","color,shape,pattern","225","1",""
"null","396705","HierDyjl1ptu1g","sub14","02","04","feedback","test","null","","","na","","225","",""
"523.7000000029802","397230","HierDyjl1ptu1g","sub14","02","04","rl","test","75","img/o_d_diag.png","8","76","color,shape,pattern","226","0",""
"null","398232","HierDyjl1ptu1g","sub14","02","04","feedback","test","null","","","na","","226","",""
"929.4000000059605","399163","HierDyjl1ptu1g","sub14","02","04","rl","test","74","img/o_t_diag.png","6","74","color,shape,pattern","227","1",""
"null","400170","HierDyjl1ptu1g","sub14","02","04","feedback","test","null","","","na","","227","",""
"588.2000000029802","400760","HierDyjl1ptu1g","sub14","02","04","rl","test","65","img/p_t_check.png","1","65","color,shape,pattern","228","1",""
"null","401766","HierDyjl1ptu1g","sub14","02","04","feedback","test","null","","","na","","228","",""
"694.6000000089407","402463","HierDyjl1ptu1g","sub14","02","04","rl","test","68","img/p_d_check.png","3","68","color,shape,pattern","229","1",""
"null","403467","HierDyjl1ptu1g","sub14","02","04","feedback","test","null","","","na","","229","",""
"454","403923","HierDyjl1ptu1g","sub14","02","04","rl","test","68","img/p_d_check.png","3","68","color,shape,pattern","230","1",""
"null","404927","HierDyjl1ptu1g","sub14","02","04","feedback","test","null","","","na","","230","",""
"747.2999999970198","405676","HierDyjl1ptu1g","sub14","02","04","rl","test","72","img/o_t_check.png","5","72","color,shape,pattern","231","1",""
"null","406681","HierDyjl1ptu1g","sub14","02","04","feedback","test","null","","","na","","231","",""
"481","407164","HierDyjl1ptu1g","sub14","02","04","rl","test","74","img/o_t_diag.png","6","74","color,shape,pattern","232","1",""
"null","408170","HierDyjl1ptu1g","sub14","02","04","feedback","test","null","","","na","","232","",""
"552","408724","HierDyjl1ptu1g","sub14","02","04","rl","test","83","img/p_t_diag.png","2","83","color,shape,pattern","233","1",""
"null","409729","HierDyjl1ptu1g","sub14","02","04","feedback","test","null","","","na","","233","",""
"670.5","410401","HierDyjl1ptu1g","sub14","02","04","rl","test","70","img/p_d_diag.png","4","70","color,shape,pattern","234","1",""
"null","411406","HierDyjl1ptu1g","sub14","02","04","feedback","test","null","","","na","","234","",""
"636.3999999910593","412044","HierDyjl1ptu1g","sub14","02","04","rl","test","75","img/o_d_check.png","7","75","color,shape,pattern","235","1",""
"null","413051","HierDyjl1ptu1g","sub14","02","04","feedback","test","null","","","na","","235","",""
"554","413607","HierDyjl1ptu1g","sub14","02","04","rl","test","74","img/o_t_diag.png","6","74","color,shape,pattern","236","1",""
"null","414614","HierDyjl1ptu1g","sub14","02","04","feedback","test","null","","","na","","236","",""
"557","415172","HierDyjl1ptu1g","sub14","02","04","rl","test","72","img/o_t_check.png","5","72","color,shape,pattern","237","1",""
"null","416179","HierDyjl1ptu1g","sub14","02","04","feedback","test","null","","","na","","237","",""
"521.5","416702","HierDyjl1ptu1g","sub14","02","04","rl","test","74","img/o_t_diag.png","6","74","color,shape,pattern","238","1",""
"null","417707","HierDyjl1ptu1g","sub14","02","04","feedback","test","null","","","na","","238","",""
"644.9000000059605","418353","HierDyjl1ptu1g","sub14","02","04","rl","test","65","img/p_t_check.png","1","65","color,shape,pattern","239","1",""
"null","419360","HierDyjl1ptu1g","sub14","02","04","feedback","test","null","","","na","","239","",""
"634.0999999940395","419996","HierDyjl1ptu1g","sub14","02","04","rl","test","76","img/o_d_diag.png","8","76","color,shape,pattern","240","1",""
"null","421001","HierDyjl1ptu1g","sub14","02","04","feedback","test","null","","","na","","240","",""
"503.1000000089407","421506","HierDyjl1ptu1g","sub14","02","04","rl","test","83","img/p_t_diag.png","2","83","color,shape,pattern","241","1",""
"null","422512","HierDyjl1ptu1g","sub14","02","04","feedback","test","null","","","na","","241","",""
"502.5","423016","HierDyjl1ptu1g","sub14","02","04","rl","test","83","img/p_t_diag.png","2","83","color,shape,pattern","242","1",""
"null","424021","HierDyjl1ptu1g","sub14","02","04","feedback","test","null","","","na","","242","",""
"714.4000000059605","424737","HierDyjl1ptu1g","sub14","02","04","rl","test","76","img/o_d_diag.png","8","76","color,shape,pattern","243","1",""
"null","425742","HierDyjl1ptu1g","sub14","02","04","feedback","test","null","","","na","","243","",""
"576.7000000029802","426320","HierDyjl1ptu1g","sub14","02","04","rl","test","75","img/o_d_check.png","7","75","color,shape,pattern","244","1",""
"null","427327","HierDyjl1ptu1g","sub14","02","04","feedback","test","null","","","na","","244","",""
"666.2999999970198","427995","HierDyjl1ptu1g","sub14","02","04","rl","test","68","img/p_d_check.png","3","68","color,shape,pattern","245","1",""
"null","429000","HierDyjl1ptu1g","sub14","02","04","feedback","test","null","","","na","","245","",""
"603","429604","HierDyjl1ptu1g","sub14","02","04","rl","test","72","img/p_t_check.png","1","65","color,shape,pattern","246","0",""
"null","430607","HierDyjl1ptu1g","sub14","02","04","feedback","test","null","","","na","","246","",""
"1193.7000000029802","431802","HierDyjl1ptu1g","sub14","02","04","rl","test","70","img/p_d_diag.png","4","70","color,shape,pattern","247","1",""
"null","432808","HierDyjl1ptu1g","sub14","02","04","feedback","test","null","","","na","","247","",""
"625.4000000059605","433435","HierDyjl1ptu1g","sub14","02","04","rl","test","72","img/o_t_check.png","5","72","color,shape,pattern","248","1",""
"null","434437","HierDyjl1ptu1g","sub14","02","04","feedback","test","null","","","na","","248","",""
"4277.4000000059605","438720","HierDyjl1ptu1g","sub14","02","04","","","","","","","","","","{""Q0"":""7""}"
"10178.20000000298","448903","HierDyjl1ptu1g","sub14","02","04","","","","","","","","","","{""Q0"":""Tried to rely on muscle memory and maintain a steady pace""}"
"2654.9000000059605","451559","HierDyjl1ptu1g","sub14","02","04","","","","","","","","","",""
