"rt","time_elapsed","subject","subID","group","day","trialType","phase","key_press","stim","stimNum","corrresp","hierarchy","trialNum","corr","responses"
"59930","59935","HierDy2qzphcqt","sub05","05","2","","","","","","","","","",""
"","62916","HierDy2qzphcqt","sub05","05","2","fullscreen","","","","","","","","",""
"14573","77491","HierDy2qzphcqt","sub05","05","2","","prac","","","","","","","",""
"1600","79094","HierDy2qzphcqt","sub05","05","2","","","32","","","","","","",""
"3512","82606","HierDy2qzphcqt","sub05","05","2","","prac","","","","","","","",""
"781","83390","HierDy2qzphcqt","sub05","05","2","rl","test","70","img/p_c_diag.png","2","83","pattern,shape,color","1","0",""
"null","84394","HierDy2qzphcqt","sub05","05","2","feedback","test","null","","","na","","1","",""
"1099","85496","HierDy2qzphcqt","sub05","05","2","rl","test","72","img/b_c_dots.png","5","72","pattern,shape,color","2","1",""
"null","86499","HierDy2qzphcqt","sub05","05","2","feedback","test","null","","","na","","2","",""
"1576","88078","HierDy2qzphcqt","sub05","05","2","rl","test","68","img/b_d_diag.png","3","68","pattern,shape,color","3","1",""
"null","89082","HierDy2qzphcqt","sub05","05","2","feedback","test","null","","","na","","3","",""
"1617","90700","HierDy2qzphcqt","sub05","05","2","rl","test","74","img/p_c_dots.png","6","74","pattern,shape,color","4","1",""
"null","91703","HierDy2qzphcqt","sub05","05","2","feedback","test","null","","","na","","4","",""
"2053.9999999999854","93758","HierDy2qzphcqt","sub05","05","2","rl","test","65","img/b_c_diag.png","1","65","pattern,shape,color","5","1",""
"null","94761","HierDy2qzphcqt","sub05","05","2","feedback","test","null","","","na","","5","",""
"2248","97011","HierDy2qzphcqt","sub05","05","2","rl","test","83","img/p_d_diag.png","4","70","pattern,shape,color","6","0",""
"null","98015","HierDy2qzphcqt","sub05","05","2","feedback","test","null","","","na","","6","",""
"1678","99694","HierDy2qzphcqt","sub05","05","2","rl","test","76","img/p_d_dots.png","8","76","pattern,shape,color","7","1",""
"null","100701","HierDy2qzphcqt","sub05","05","2","feedback","test","null","","","na","","7","",""
"517.0000000000146","101219","HierDy2qzphcqt","sub05","05","2","rl","test","75","img/b_d_dots.png","7","75","pattern,shape,color","8","1",""
"null","102221","HierDy2qzphcqt","sub05","05","2","feedback","test","null","","","na","","8","",""
"1672","103896","HierDy2qzphcqt","sub05","05","2","rl","test","65","img/b_c_diag.png","1","65","pattern,shape,color","9","1",""
"null","104899","HierDy2qzphcqt","sub05","05","2","feedback","test","null","","","na","","9","",""
"856","105757","HierDy2qzphcqt","sub05","05","2","rl","test","76","img/p_d_dots.png","8","76","pattern,shape,color","10","1",""
"null","106759","HierDy2qzphcqt","sub05","05","2","feedback","test","null","","","na","","10","",""
"1542","108303","HierDy2qzphcqt","sub05","05","2","rl","test","65","img/b_c_dots.png","5","72","pattern,shape,color","11","0",""
"null","109307","HierDy2qzphcqt","sub05","05","2","feedback","test","null","","","na","","11","",""
"822.0000000000146","110130","HierDy2qzphcqt","sub05","05","2","rl","test","74","img/p_c_dots.png","6","74","pattern,shape,color","12","1",""
"null","111134","HierDy2qzphcqt","sub05","05","2","feedback","test","null","","","na","","12","",""
"923","112059","HierDy2qzphcqt","sub05","05","2","rl","test","75","img/b_d_dots.png","7","75","pattern,shape,color","13","1",""
"null","113062","HierDy2qzphcqt","sub05","05","2","feedback","test","null","","","na","","13","",""
"1337","114401","HierDy2qzphcqt","sub05","05","2","rl","test","70","img/p_c_diag.png","2","83","pattern,shape,color","14","0",""
"null","115403","HierDy2qzphcqt","sub05","05","2","feedback","test","null","","","na","","14","",""
"1939","117344","HierDy2qzphcqt","sub05","05","2","rl","test","72","img/b_d_dots.png","7","75","pattern,shape,color","15","0",""
"null","118347","HierDy2qzphcqt","sub05","05","2","feedback","test","null","","","na","","15","",""
"1538","119886","HierDy2qzphcqt","sub05","05","2","rl","test","70","img/p_d_diag.png","4","70","pattern,shape,color","16","1",""
"null","120889","HierDy2qzphcqt","sub05","05","2","feedback","test","null","","","na","","16","",""
"745.0000000000146","121637","HierDy2qzphcqt","sub05","05","2","rl","test","68","img/b_d_diag.png","3","68","pattern,shape,color","17","1",""
"null","122640","HierDy2qzphcqt","sub05","05","2","feedback","test","null","","","na","","17","",""
"628","123271","HierDy2qzphcqt","sub05","05","2","rl","test","68","img/b_d_diag.png","3","68","pattern,shape,color","18","1",""
"null","124273","HierDy2qzphcqt","sub05","05","2","feedback","test","null","","","na","","18","",""
"984.0000000000146","125259","HierDy2qzphcqt","sub05","05","2","rl","test","70","img/p_d_diag.png","4","70","pattern,shape,color","19","1",""
"null","126262","HierDy2qzphcqt","sub05","05","2","feedback","test","null","","","na","","19","",""
"1121.9999999999854","127386","HierDy2qzphcqt","sub05","05","2","rl","test","65","img/b_c_diag.png","1","65","pattern,shape,color","20","1",""
"null","128389","HierDy2qzphcqt","sub05","05","2","feedback","test","null","","","na","","20","",""
"1914.0000000000146","130306","HierDy2qzphcqt","sub05","05","2","rl","test","76","img/p_d_dots.png","8","76","pattern,shape,color","21","1",""
"null","131309","HierDy2qzphcqt","sub05","05","2","feedback","test","null","","","na","","21","",""
"1969","133281","HierDy2qzphcqt","sub05","05","2","rl","test","65","img/b_c_diag.png","1","65","pattern,shape,color","22","1",""
"null","134284","HierDy2qzphcqt","sub05","05","2","feedback","test","null","","","na","","22","",""
"1235","135521","HierDy2qzphcqt","sub05","05","2","rl","test","72","img/b_c_dots.png","5","72","pattern,shape,color","23","1",""
"null","136524","HierDy2qzphcqt","sub05","05","2","feedback","test","null","","","na","","23","",""
"576","137102","HierDy2qzphcqt","sub05","05","2","rl","test","72","img/b_c_dots.png","5","72","pattern,shape,color","24","1",""
"null","138105","HierDy2qzphcqt","sub05","05","2","feedback","test","null","","","na","","24","",""
"720","138827","HierDy2qzphcqt","sub05","05","2","rl","test","74","img/p_c_dots.png","6","74","pattern,shape,color","25","1",""
"null","139830","HierDy2qzphcqt","sub05","05","2","feedback","test","null","","","na","","25","",""
"1128.999999999971","140961","HierDy2qzphcqt","sub05","05","2","rl","test","83","img/p_c_diag.png","2","83","pattern,shape,color","26","1",""
"null","141963","HierDy2qzphcqt","sub05","05","2","feedback","test","null","","","na","","26","",""
"959","142925","HierDy2qzphcqt","sub05","05","2","rl","test","76","img/p_d_dots.png","8","76","pattern,shape,color","27","1",""
"null","143928","HierDy2qzphcqt","sub05","05","2","feedback","test","null","","","na","","27","",""
"2056","145985","HierDy2qzphcqt","sub05","05","2","rl","test","68","img/b_d_diag.png","3","68","pattern,shape,color","28","1",""
"null","146988","HierDy2qzphcqt","sub05","05","2","feedback","test","null","","","na","","28","",""
"1276","148266","HierDy2qzphcqt","sub05","05","2","rl","test","74","img/p_c_dots.png","6","74","pattern,shape,color","29","1",""
"null","149269","HierDy2qzphcqt","sub05","05","2","feedback","test","null","","","na","","29","",""
"1576.999999999971","150848","HierDy2qzphcqt","sub05","05","2","rl","test","75","img/b_d_dots.png","7","75","pattern,shape,color","30","1",""
"null","151852","HierDy2qzphcqt","sub05","05","2","feedback","test","null","","","na","","30","",""
"1569","153423","HierDy2qzphcqt","sub05","05","2","rl","test","83","img/p_c_diag.png","2","83","pattern,shape,color","31","1",""
"null","154425","HierDy2qzphcqt","sub05","05","2","feedback","test","null","","","na","","31","",""
"1060","155487","HierDy2qzphcqt","sub05","05","2","rl","test","70","img/p_d_diag.png","4","70","pattern,shape,color","32","1",""
"null","156490","HierDy2qzphcqt","sub05","05","2","feedback","test","null","","","na","","32","",""
"646","157139","HierDy2qzphcqt","sub05","05","2","rl","test","70","img/p_d_diag.png","4","70","pattern,shape,color","33","1",""
"null","158142","HierDy2qzphcqt","sub05","05","2","feedback","test","null","","","na","","33","",""
"906","159050","HierDy2qzphcqt","sub05","05","2","rl","test","68","img/b_d_diag.png","3","68","pattern,shape,color","34","1",""
"null","160053","HierDy2qzphcqt","sub05","05","2","feedback","test","null","","","na","","34","",""
"1399","161454","HierDy2qzphcqt","sub05","05","2","rl","test","72","img/b_c_dots.png","5","72","pattern,shape,color","35","1",""
"null","162457","HierDy2qzphcqt","sub05","05","2","feedback","test","null","","","na","","35","",""
"1257","163717","HierDy2qzphcqt","sub05","05","2","rl","test","65","img/b_c_diag.png","1","65","pattern,shape,color","36","1",""
"null","164720","HierDy2qzphcqt","sub05","05","2","feedback","test","null","","","na","","36","",""
"1170","165892","HierDy2qzphcqt","sub05","05","2","rl","test","74","img/p_c_dots.png","6","74","pattern,shape,color","37","1",""
"null","166895","HierDy2qzphcqt","sub05","05","2","feedback","test","null","","","na","","37","",""
"1361.999999999971","168259","HierDy2qzphcqt","sub05","05","2","rl","test","83","img/p_c_diag.png","2","83","pattern,shape,color","38","1",""
"null","169262","HierDy2qzphcqt","sub05","05","2","feedback","test","null","","","na","","38","",""
"896","170160","HierDy2qzphcqt","sub05","05","2","rl","test","75","img/b_d_dots.png","7","75","pattern,shape,color","39","1",""
"null","171163","HierDy2qzphcqt","sub05","05","2","feedback","test","null","","","na","","39","",""
"1208","172373","HierDy2qzphcqt","sub05","05","2","rl","test","74","img/p_c_dots.png","6","74","pattern,shape,color","40","1",""
"null","173377","HierDy2qzphcqt","sub05","05","2","feedback","test","null","","","na","","40","",""
"1120","174498","HierDy2qzphcqt","sub05","05","2","rl","test","76","img/p_d_dots.png","8","76","pattern,shape,color","41","1",""
"null","175502","HierDy2qzphcqt","sub05","05","2","feedback","test","null","","","na","","41","",""
"1412","176915","HierDy2qzphcqt","sub05","05","2","rl","test","83","img/p_c_diag.png","2","83","pattern,shape,color","42","1",""
"null","177918","HierDy2qzphcqt","sub05","05","2","feedback","test","null","","","na","","42","",""
"935.9999999999709","178856","HierDy2qzphcqt","sub05","05","2","rl","test","76","img/p_d_dots.png","8","76","pattern,shape,color","43","1",""
"null","179859","HierDy2qzphcqt","sub05","05","2","feedback","test","null","","","na","","43","",""
"1019","180881","HierDy2qzphcqt","sub05","05","2","rl","test","70","img/p_d_diag.png","4","70","pattern,shape,color","44","1",""
"null","181884","HierDy2qzphcqt","sub05","05","2","feedback","test","null","","","na","","44","",""
"1285.000000000029","183170","HierDy2qzphcqt","sub05","05","2","rl","test","75","img/b_d_dots.png","7","75","pattern,shape,color","45","1",""
"null","184173","HierDy2qzphcqt","sub05","05","2","feedback","test","null","","","na","","45","",""
"1052","185227","HierDy2qzphcqt","sub05","05","2","rl","test","65","img/b_c_diag.png","1","65","pattern,shape,color","46","1",""
"null","186230","HierDy2qzphcqt","sub05","05","2","feedback","test","null","","","na","","46","",""
"970","187202","HierDy2qzphcqt","sub05","05","2","rl","test","72","img/b_c_dots.png","5","72","pattern,shape,color","47","1",""
"null","188205","HierDy2qzphcqt","sub05","05","2","feedback","test","null","","","na","","47","",""
"1143.999999999971","189351","HierDy2qzphcqt","sub05","05","2","rl","test","68","img/b_d_diag.png","3","68","pattern,shape,color","48","1",""
"null","190353","HierDy2qzphcqt","sub05","05","2","feedback","test","null","","","na","","48","",""
"1890.999999999971","192246","HierDy2qzphcqt","sub05","05","2","rl","test","72","img/b_c_dots.png","5","72","pattern,shape,color","49","1",""
"null","193249","HierDy2qzphcqt","sub05","05","2","feedback","test","null","","","na","","49","",""
"1739","194991","HierDy2qzphcqt","sub05","05","2","rl","test","65","img/b_c_diag.png","1","65","pattern,shape,color","50","1",""
"null","195993","HierDy2qzphcqt","sub05","05","2","feedback","test","null","","","na","","50","",""
"1087","197082","HierDy2qzphcqt","sub05","05","2","rl","test","83","img/p_c_diag.png","2","83","pattern,shape,color","51","1",""
"null","198085","HierDy2qzphcqt","sub05","05","2","feedback","test","null","","","na","","51","",""
"714","198801","HierDy2qzphcqt","sub05","05","2","rl","test","70","img/p_d_diag.png","4","70","pattern,shape,color","52","1",""
"null","199803","HierDy2qzphcqt","sub05","05","2","feedback","test","null","","","na","","52","",""
"561","200366","HierDy2qzphcqt","sub05","05","2","rl","test","68","img/b_d_diag.png","3","68","pattern,shape,color","53","1",""
"null","201369","HierDy2qzphcqt","sub05","05","2","feedback","test","null","","","na","","53","",""
"646","202017","HierDy2qzphcqt","sub05","05","2","rl","test","70","img/b_d_diag.png","3","68","pattern,shape,color","54","0",""
"null","203021","HierDy2qzphcqt","sub05","05","2","feedback","test","null","","","na","","54","",""
"1107","204130","HierDy2qzphcqt","sub05","05","2","rl","test","74","img/p_c_dots.png","6","74","pattern,shape,color","55","1",""
"null","205133","HierDy2qzphcqt","sub05","05","2","feedback","test","null","","","na","","55","",""
"1141","206275","HierDy2qzphcqt","sub05","05","2","rl","test","76","img/p_d_dots.png","8","76","pattern,shape,color","56","1",""
"null","207278","HierDy2qzphcqt","sub05","05","2","feedback","test","null","","","na","","56","",""
"1692","208972","HierDy2qzphcqt","sub05","05","2","rl","test","65","img/b_c_diag.png","1","65","pattern,shape,color","57","1",""
"null","209975","HierDy2qzphcqt","sub05","05","2","feedback","test","null","","","na","","57","",""
"1012","210989","HierDy2qzphcqt","sub05","05","2","rl","test","75","img/b_d_dots.png","7","75","pattern,shape,color","58","1",""
"null","211992","HierDy2qzphcqt","sub05","05","2","feedback","test","null","","","na","","58","",""
"1101","213095","HierDy2qzphcqt","sub05","05","2","rl","test","76","img/p_d_dots.png","8","76","pattern,shape,color","59","1",""
"null","214098","HierDy2qzphcqt","sub05","05","2","feedback","test","null","","","na","","59","",""
"1484","215584","HierDy2qzphcqt","sub05","05","2","rl","test","83","img/p_c_diag.png","2","83","pattern,shape,color","60","1",""
"null","216586","HierDy2qzphcqt","sub05","05","2","feedback","test","null","","","na","","60","",""
"2127","218715","HierDy2qzphcqt","sub05","05","2","rl","test","75","img/b_d_dots.png","7","75","pattern,shape,color","61","1",""
"null","219718","HierDy2qzphcqt","sub05","05","2","feedback","test","null","","","na","","61","",""
"1110","220830","HierDy2qzphcqt","sub05","05","2","rl","test","70","img/p_d_diag.png","4","70","pattern,shape,color","62","1",""
"null","221832","HierDy2qzphcqt","sub05","05","2","feedback","test","null","","","na","","62","",""
"2424","224258","HierDy2qzphcqt","sub05","05","2","rl","test","74","img/p_c_dots.png","6","74","pattern,shape,color","63","1",""
"null","225260","HierDy2qzphcqt","sub05","05","2","feedback","test","null","","","na","","63","",""
"782","226045","HierDy2qzphcqt","sub05","05","2","rl","test","72","img/b_c_dots.png","5","72","pattern,shape,color","64","1",""
"null","227047","HierDy2qzphcqt","sub05","05","2","feedback","test","null","","","na","","64","",""
"1172","228221","HierDy2qzphcqt","sub05","05","2","rl","test","75","img/b_d_dots.png","7","75","pattern,shape,color","65","1",""
"null","229224","HierDy2qzphcqt","sub05","05","2","feedback","test","null","","","na","","65","",""
"1180","230406","HierDy2qzphcqt","sub05","05","2","rl","test","68","img/b_d_diag.png","3","68","pattern,shape,color","66","1",""
"null","231409","HierDy2qzphcqt","sub05","05","2","feedback","test","null","","","na","","66","",""
"748","232158","HierDy2qzphcqt","sub05","05","2","rl","test","70","img/p_d_diag.png","4","70","pattern,shape,color","67","1",""
"null","233160","HierDy2qzphcqt","sub05","05","2","feedback","test","null","","","na","","67","",""
"1386","234548","HierDy2qzphcqt","sub05","05","2","rl","test","65","img/b_c_diag.png","1","65","pattern,shape,color","68","1",""
"null","235551","HierDy2qzphcqt","sub05","05","2","feedback","test","null","","","na","","68","",""
"2011","237563","HierDy2qzphcqt","sub05","05","2","rl","test","74","img/p_c_dots.png","6","74","pattern,shape,color","69","1",""
"null","238567","HierDy2qzphcqt","sub05","05","2","feedback","test","null","","","na","","69","",""
"1378.999999999971","239948","HierDy2qzphcqt","sub05","05","2","rl","test","72","img/b_c_dots.png","5","72","pattern,shape,color","70","1",""
"null","240951","HierDy2qzphcqt","sub05","05","2","feedback","test","null","","","na","","70","",""
"602","241555","HierDy2qzphcqt","sub05","05","2","rl","test","74","img/p_c_dots.png","6","74","pattern,shape,color","71","1",""
"null","242558","HierDy2qzphcqt","sub05","05","2","feedback","test","null","","","na","","71","",""
"1247.000000000029","243807","HierDy2qzphcqt","sub05","05","2","rl","test","76","img/p_d_dots.png","8","76","pattern,shape,color","72","1",""
"null","244810","HierDy2qzphcqt","sub05","05","2","feedback","test","null","","","na","","72","",""
"563.9999999999709","245376","HierDy2qzphcqt","sub05","05","2","rl","test","76","img/p_d_dots.png","8","76","pattern,shape,color","73","1",""
"null","246380","HierDy2qzphcqt","sub05","05","2","feedback","test","null","","","na","","73","",""
"993","247375","HierDy2qzphcqt","sub05","05","2","rl","test","83","img/p_c_diag.png","2","83","pattern,shape,color","74","1",""
"null","248378","HierDy2qzphcqt","sub05","05","2","feedback","test","null","","","na","","74","",""
"850.0000000000291","249229","HierDy2qzphcqt","sub05","05","2","rl","test","65","img/b_c_diag.png","1","65","pattern,shape,color","75","1",""
"null","250232","HierDy2qzphcqt","sub05","05","2","feedback","test","null","","","na","","75","",""
"602","250836","HierDy2qzphcqt","sub05","05","2","rl","test","83","img/p_c_diag.png","2","83","pattern,shape,color","76","1",""
"null","251839","HierDy2qzphcqt","sub05","05","2","feedback","test","null","","","na","","76","",""
"1026.000000000029","252867","HierDy2qzphcqt","sub05","05","2","rl","test","72","img/b_c_dots.png","5","72","pattern,shape,color","77","1",""
"null","253870","HierDy2qzphcqt","sub05","05","2","feedback","test","null","","","na","","77","",""
"716.0000000000291","254586","HierDy2qzphcqt","sub05","05","2","rl","test","68","img/b_d_diag.png","3","68","pattern,shape,color","78","1",""
"null","255589","HierDy2qzphcqt","sub05","05","2","feedback","test","null","","","na","","78","",""
"1087.999999999971","256679","HierDy2qzphcqt","sub05","05","2","rl","test","75","img/b_d_dots.png","7","75","pattern,shape,color","79","1",""
"null","257683","HierDy2qzphcqt","sub05","05","2","feedback","test","null","","","na","","79","",""
"909.9999999999709","258595","HierDy2qzphcqt","sub05","05","2","rl","test","65","img/b_c_diag.png","1","65","pattern,shape,color","80","1",""
"null","259598","HierDy2qzphcqt","sub05","05","2","feedback","test","null","","","na","","80","",""
"1049","260649","HierDy2qzphcqt","sub05","05","2","rl","test","68","img/b_d_diag.png","3","68","pattern,shape,color","81","1",""
"null","261652","HierDy2qzphcqt","sub05","05","2","feedback","test","null","","","na","","81","",""
"702","262356","HierDy2qzphcqt","sub05","05","2","rl","test","70","img/p_d_diag.png","4","70","pattern,shape,color","82","1",""
"null","263359","HierDy2qzphcqt","sub05","05","2","feedback","test","null","","","na","","82","",""
"1751","265112","HierDy2qzphcqt","sub05","05","2","rl","test","76","img/p_d_dots.png","8","76","pattern,shape,color","83","1",""
"null","266115","HierDy2qzphcqt","sub05","05","2","feedback","test","null","","","na","","83","",""
"1345","267461","HierDy2qzphcqt","sub05","05","2","rl","test","83","img/p_c_diag.png","2","83","pattern,shape,color","84","1",""
"null","268464","HierDy2qzphcqt","sub05","05","2","feedback","test","null","","","na","","84","",""
"1123","269590","HierDy2qzphcqt","sub05","05","2","rl","test","70","img/p_d_diag.png","4","70","pattern,shape,color","85","1",""
"null","270593","HierDy2qzphcqt","sub05","05","2","feedback","test","null","","","na","","85","",""
"933.9999999999418","271529","HierDy2qzphcqt","sub05","05","2","rl","test","72","img/p_c_dots.png","6","74","pattern,shape,color","86","0",""
"null","272532","HierDy2qzphcqt","sub05","05","2","feedback","test","null","","","na","","86","",""
"2223.000000000058","274757","HierDy2qzphcqt","sub05","05","2","rl","test","72","img/b_c_dots.png","5","72","pattern,shape,color","87","1",""
"null","275760","HierDy2qzphcqt","sub05","05","2","feedback","test","null","","","na","","87","",""
"1128","276890","HierDy2qzphcqt","sub05","05","2","rl","test","75","img/b_d_dots.png","7","75","pattern,shape,color","88","1",""
"null","277893","HierDy2qzphcqt","sub05","05","2","feedback","test","null","","","na","","88","",""
"2012","279907","HierDy2qzphcqt","sub05","05","2","rl","test","75","img/b_d_dots.png","7","75","pattern,shape,color","89","1",""
"null","280910","HierDy2qzphcqt","sub05","05","2","feedback","test","null","","","na","","89","",""
"1589","282501","HierDy2qzphcqt","sub05","05","2","rl","test","74","img/p_c_dots.png","6","74","pattern,shape,color","90","1",""
"null","283503","HierDy2qzphcqt","sub05","05","2","feedback","test","null","","","na","","90","",""
"1367","284872","HierDy2qzphcqt","sub05","05","2","rl","test","65","img/b_c_diag.png","1","65","pattern,shape,color","91","1",""
"null","285875","HierDy2qzphcqt","sub05","05","2","feedback","test","null","","","na","","91","",""
"829","286706","HierDy2qzphcqt","sub05","05","2","rl","test","70","img/b_d_diag.png","3","68","pattern,shape,color","92","0",""
"null","287708","HierDy2qzphcqt","sub05","05","2","feedback","test","null","","","na","","92","",""
"1395","289105","HierDy2qzphcqt","sub05","05","2","rl","test","72","img/b_c_dots.png","5","72","pattern,shape,color","93","1",""
"null","290109","HierDy2qzphcqt","sub05","05","2","feedback","test","null","","","na","","93","",""
"843","290954","HierDy2qzphcqt","sub05","05","2","rl","test","70","img/p_d_diag.png","4","70","pattern,shape,color","94","1",""
"null","291957","HierDy2qzphcqt","sub05","05","2","feedback","test","null","","","na","","94","",""
"1429.9999999999418","293388","HierDy2qzphcqt","sub05","05","2","rl","test","76","img/p_d_dots.png","8","76","pattern,shape,color","95","1",""
"null","294392","HierDy2qzphcqt","sub05","05","2","feedback","test","null","","","na","","95","",""
"1418.9999999999418","295812","HierDy2qzphcqt","sub05","05","2","rl","test","68","img/b_d_diag.png","3","68","pattern,shape,color","96","1",""
"null","296815","HierDy2qzphcqt","sub05","05","2","feedback","test","null","","","na","","96","",""
"1455","298273","HierDy2qzphcqt","sub05","05","2","rl","test","83","img/p_c_diag.png","2","83","pattern,shape,color","97","1",""
"null","299275","HierDy2qzphcqt","sub05","05","2","feedback","test","null","","","na","","97","",""
"1732","301010","HierDy2qzphcqt","sub05","05","2","rl","test","74","img/p_c_dots.png","6","74","pattern,shape,color","98","1",""
"null","302013","HierDy2qzphcqt","sub05","05","2","feedback","test","null","","","na","","98","",""
"760","302776","HierDy2qzphcqt","sub05","05","2","rl","test","70","img/p_d_diag.png","4","70","pattern,shape,color","99","1",""
"null","303778","HierDy2qzphcqt","sub05","05","2","feedback","test","null","","","na","","99","",""
"1027","304806","HierDy2qzphcqt","sub05","05","2","rl","test","72","img/b_c_dots.png","5","72","pattern,shape,color","100","1",""
"null","305809","HierDy2qzphcqt","sub05","05","2","feedback","test","null","","","na","","100","",""
"871","306683","HierDy2qzphcqt","sub05","05","2","rl","test","75","img/b_d_dots.png","7","75","pattern,shape,color","101","1",""
"null","307686","HierDy2qzphcqt","sub05","05","2","feedback","test","null","","","na","","101","",""
"824","308513","HierDy2qzphcqt","sub05","05","2","rl","test","83","img/p_c_diag.png","2","83","pattern,shape,color","102","1",""
"null","309516","HierDy2qzphcqt","sub05","05","2","feedback","test","null","","","na","","102","",""
"1850","311367","HierDy2qzphcqt","sub05","05","2","rl","test","75","img/b_d_dots.png","7","75","pattern,shape,color","103","1",""
"null","312371","HierDy2qzphcqt","sub05","05","2","feedback","test","null","","","na","","103","",""
"969","313341","HierDy2qzphcqt","sub05","05","2","rl","test","65","img/b_c_diag.png","1","65","pattern,shape,color","104","1",""
"null","314345","HierDy2qzphcqt","sub05","05","2","feedback","test","null","","","na","","104","",""
"1740","316086","HierDy2qzphcqt","sub05","05","2","rl","test","65","img/b_c_diag.png","1","65","pattern,shape,color","105","1",""
"null","317089","HierDy2qzphcqt","sub05","05","2","feedback","test","null","","","na","","105","",""
"2450","319541","HierDy2qzphcqt","sub05","05","2","rl","test","76","img/p_d_dots.png","8","76","pattern,shape,color","106","1",""
"null","320544","HierDy2qzphcqt","sub05","05","2","feedback","test","null","","","na","","106","",""
"1364.0000000000582","321910","HierDy2qzphcqt","sub05","05","2","rl","test","74","img/p_c_dots.png","6","74","pattern,shape,color","107","1",""
"null","322914","HierDy2qzphcqt","sub05","05","2","feedback","test","null","","","na","","107","",""
"839","323754","HierDy2qzphcqt","sub05","05","2","rl","test","76","img/p_d_dots.png","8","76","pattern,shape,color","108","1",""
"null","324757","HierDy2qzphcqt","sub05","05","2","feedback","test","null","","","na","","108","",""
"816","325574","HierDy2qzphcqt","sub05","05","2","rl","test","70","img/p_d_diag.png","4","70","pattern,shape,color","109","1",""
"null","326576","HierDy2qzphcqt","sub05","05","2","feedback","test","null","","","na","","109","",""
"456","327035","HierDy2qzphcqt","sub05","05","2","rl","test","68","img/b_d_diag.png","3","68","pattern,shape,color","110","1",""
"null","328038","HierDy2qzphcqt","sub05","05","2","feedback","test","null","","","na","","110","",""
"1216.0000000000582","329256","HierDy2qzphcqt","sub05","05","2","rl","test","75","img/b_d_dots.png","7","75","pattern,shape,color","111","1",""
"null","330259","HierDy2qzphcqt","sub05","05","2","feedback","test","null","","","na","","111","",""
"693","330953","HierDy2qzphcqt","sub05","05","2","rl","test","70","img/p_d_diag.png","4","70","pattern,shape,color","112","1",""
"null","331956","HierDy2qzphcqt","sub05","05","2","feedback","test","null","","","na","","112","",""
"2310.999999999942","334269","HierDy2qzphcqt","sub05","05","2","rl","test","74","img/p_c_dots.png","6","74","pattern,shape,color","113","1",""
"null","335273","HierDy2qzphcqt","sub05","05","2","feedback","test","null","","","na","","113","",""
"892.0000000000582","336167","HierDy2qzphcqt","sub05","05","2","rl","test","72","img/b_c_dots.png","5","72","pattern,shape,color","114","1",""
"null","337169","HierDy2qzphcqt","sub05","05","2","feedback","test","null","","","na","","114","",""
"1215","338386","HierDy2qzphcqt","sub05","05","2","rl","test","76","img/p_d_dots.png","8","76","pattern,shape,color","115","1",""
"null","339389","HierDy2qzphcqt","sub05","05","2","feedback","test","null","","","na","","115","",""
"1186","340578","HierDy2qzphcqt","sub05","05","2","rl","test","83","img/p_c_diag.png","2","83","pattern,shape,color","116","1",""
"null","341581","HierDy2qzphcqt","sub05","05","2","feedback","test","null","","","na","","116","",""
"537.9999999999418","342121","HierDy2qzphcqt","sub05","05","2","rl","test","83","img/p_c_diag.png","2","83","pattern,shape,color","117","1",""
"null","343124","HierDy2qzphcqt","sub05","05","2","feedback","test","null","","","na","","117","",""
"1326","344452","HierDy2qzphcqt","sub05","05","2","rl","test","72","img/b_c_dots.png","5","72","pattern,shape,color","118","1",""
"null","345456","HierDy2qzphcqt","sub05","05","2","feedback","test","null","","","na","","118","",""
"859.0000000000582","346316","HierDy2qzphcqt","sub05","05","2","rl","test","68","img/b_d_diag.png","3","68","pattern,shape,color","119","1",""
"null","347319","HierDy2qzphcqt","sub05","05","2","feedback","test","null","","","na","","119","",""
"1875.9999999999418","349198","HierDy2qzphcqt","sub05","05","2","rl","test","65","img/b_c_diag.png","1","65","pattern,shape,color","120","1",""
"null","350201","HierDy2qzphcqt","sub05","05","2","feedback","test","null","","","na","","120","",""
"1759","351962","HierDy2qzphcqt","sub05","05","2","rl","test","75","img/b_d_dots.png","7","75","pattern,shape,color","121","1",""
"null","352965","HierDy2qzphcqt","sub05","05","2","feedback","test","null","","","na","","121","",""
"2142","355109","HierDy2qzphcqt","sub05","05","2","rl","test","65","img/b_c_diag.png","1","65","pattern,shape,color","122","1",""
"null","356112","HierDy2qzphcqt","sub05","05","2","feedback","test","null","","","na","","122","",""
"1155","357269","HierDy2qzphcqt","sub05","05","2","rl","test","72","img/b_c_dots.png","5","72","pattern,shape,color","123","1",""
"null","358272","HierDy2qzphcqt","sub05","05","2","feedback","test","null","","","na","","123","",""
"768","359041","HierDy2qzphcqt","sub05","05","2","rl","test","70","img/p_d_diag.png","4","70","pattern,shape,color","124","1",""
"null","360044","HierDy2qzphcqt","sub05","05","2","feedback","test","null","","","na","","124","",""
"815","360861","HierDy2qzphcqt","sub05","05","2","rl","test","68","img/b_d_diag.png","3","68","pattern,shape,color","125","1",""
"null","361864","HierDy2qzphcqt","sub05","05","2","feedback","test","null","","","na","","125","",""
"2001","363867","HierDy2qzphcqt","sub05","05","2","rl","test","76","img/p_d_dots.png","8","76","pattern,shape,color","126","1",""
"null","364870","HierDy2qzphcqt","sub05","05","2","feedback","test","null","","","na","","126","",""
"1425.0000000000582","366297","HierDy2qzphcqt","sub05","05","2","rl","test","83","img/p_c_diag.png","2","83","pattern,shape,color","127","1",""
"null","367300","HierDy2qzphcqt","sub05","05","2","feedback","test","null","","","na","","127","",""
"1285","368587","HierDy2qzphcqt","sub05","05","2","rl","test","74","img/p_c_dots.png","6","74","pattern,shape,color","128","1",""
"null","369590","HierDy2qzphcqt","sub05","05","2","feedback","test","null","","","na","","128","",""
"1550","371142","HierDy2qzphcqt","sub05","05","2","rl","test","75","img/b_d_dots.png","7","75","pattern,shape,color","129","1",""
"null","372145","HierDy2qzphcqt","sub05","05","2","feedback","test","null","","","na","","129","",""
"1172","373319","HierDy2qzphcqt","sub05","05","2","rl","test","72","img/b_c_dots.png","5","72","pattern,shape,color","130","1",""
"null","374323","HierDy2qzphcqt","sub05","05","2","feedback","test","null","","","na","","130","",""
"1070","375395","HierDy2qzphcqt","sub05","05","2","rl","test","83","img/p_c_diag.png","2","83","pattern,shape,color","131","1",""
"null","376398","HierDy2qzphcqt","sub05","05","2","feedback","test","null","","","na","","131","",""
"1749","378149","HierDy2qzphcqt","sub05","05","2","rl","test","75","img/b_d_dots.png","7","75","pattern,shape,color","132","1",""
"null","379152","HierDy2qzphcqt","sub05","05","2","feedback","test","null","","","na","","132","",""
"1946","381101","HierDy2qzphcqt","sub05","05","2","rl","test","65","img/b_c_diag.png","1","65","pattern,shape,color","133","1",""
"null","382103","HierDy2qzphcqt","sub05","05","2","feedback","test","null","","","na","","133","",""
"875","382980","HierDy2qzphcqt","sub05","05","2","rl","test","68","img/b_d_diag.png","3","68","pattern,shape,color","134","1",""
"null","383983","HierDy2qzphcqt","sub05","05","2","feedback","test","null","","","na","","134","",""
"872.0000000000582","384857","HierDy2qzphcqt","sub05","05","2","rl","test","68","img/b_d_diag.png","3","68","pattern,shape,color","135","1",""
"null","385860","HierDy2qzphcqt","sub05","05","2","feedback","test","null","","","na","","135","",""
"780","386642","HierDy2qzphcqt","sub05","05","2","rl","test","70","img/p_d_diag.png","4","70","pattern,shape,color","136","1",""
"null","387646","HierDy2qzphcqt","sub05","05","2","feedback","test","null","","","na","","136","",""
"1560.0000000000582","389208","HierDy2qzphcqt","sub05","05","2","rl","test","72","img/p_c_dots.png","6","74","pattern,shape,color","137","0",""
"null","390212","HierDy2qzphcqt","sub05","05","2","feedback","test","null","","","na","","137","",""
"1122","391336","HierDy2qzphcqt","sub05","05","2","rl","test","83","img/p_c_diag.png","2","83","pattern,shape,color","138","1",""
"null","392338","HierDy2qzphcqt","sub05","05","2","feedback","test","null","","","na","","138","",""
"1415.0000000000582","393756","HierDy2qzphcqt","sub05","05","2","rl","test","76","img/p_d_dots.png","8","76","pattern,shape,color","139","1",""
"null","394759","HierDy2qzphcqt","sub05","05","2","feedback","test","null","","","na","","139","",""
"1595","396356","HierDy2qzphcqt","sub05","05","2","rl","test","74","img/p_c_dots.png","6","74","pattern,shape,color","140","1",""
"null","397360","HierDy2qzphcqt","sub05","05","2","feedback","test","null","","","na","","140","",""
"799","398162","HierDy2qzphcqt","sub05","05","2","rl","test","72","img/b_c_dots.png","5","72","pattern,shape,color","141","1",""
"null","399165","HierDy2qzphcqt","sub05","05","2","feedback","test","null","","","na","","141","",""
"989.9999999999418","400157","HierDy2qzphcqt","sub05","05","2","rl","test","70","img/p_d_diag.png","4","70","pattern,shape,color","142","1",""
"null","401161","HierDy2qzphcqt","sub05","05","2","feedback","test","null","","","na","","142","",""
"1887","403050","HierDy2qzphcqt","sub05","05","2","rl","test","76","img/p_d_dots.png","8","76","pattern,shape,color","143","1",""
"null","404053","HierDy2qzphcqt","sub05","05","2","feedback","test","null","","","na","","143","",""
"777","404832","HierDy2qzphcqt","sub05","05","2","rl","test","70","img/p_d_diag.png","4","70","pattern,shape,color","144","1",""
"null","405835","HierDy2qzphcqt","sub05","05","2","feedback","test","null","","","na","","144","",""
"1531","407368","HierDy2qzphcqt","sub05","05","2","rl","test","65","img/b_c_diag.png","1","65","pattern,shape,color","145","1",""
"null","408371","HierDy2qzphcqt","sub05","05","2","feedback","test","null","","","na","","145","",""
"1995","410368","HierDy2qzphcqt","sub05","05","2","rl","test","75","img/b_d_dots.png","7","75","pattern,shape,color","146","1",""
"null","411371","HierDy2qzphcqt","sub05","05","2","feedback","test","null","","","na","","146","",""
"910","412284","HierDy2qzphcqt","sub05","05","2","rl","test","65","img/b_c_diag.png","1","65","pattern,shape,color","147","1",""
"null","413286","HierDy2qzphcqt","sub05","05","2","feedback","test","null","","","na","","147","",""
"1571","414859","HierDy2qzphcqt","sub05","05","2","rl","test","70","img/b_d_diag.png","3","68","pattern,shape,color","148","0",""
"null","415861","HierDy2qzphcqt","sub05","05","2","feedback","test","null","","","na","","148","",""
"1172.0000000000582","417034","HierDy2qzphcqt","sub05","05","2","rl","test","72","img/b_c_dots.png","5","72","pattern,shape,color","149","1",""
"null","418037","HierDy2qzphcqt","sub05","05","2","feedback","test","null","","","na","","149","",""
"909","418948","HierDy2qzphcqt","sub05","05","2","rl","test","70","img/p_d_diag.png","4","70","pattern,shape,color","150","1",""
"null","419951","HierDy2qzphcqt","sub05","05","2","feedback","test","null","","","na","","150","",""
"910","420863","HierDy2qzphcqt","sub05","05","2","rl","test","83","img/p_c_diag.png","2","83","pattern,shape,color","151","1",""
"null","421866","HierDy2qzphcqt","sub05","05","2","feedback","test","null","","","na","","151","",""
"504.9999999999418","422373","HierDy2qzphcqt","sub05","05","2","rl","test","83","img/p_c_diag.png","2","83","pattern,shape,color","152","1",""
"null","423377","HierDy2qzphcqt","sub05","05","2","feedback","test","null","","","na","","152","",""
"797","424175","HierDy2qzphcqt","sub05","05","2","rl","test","68","img/b_d_diag.png","3","68","pattern,shape,color","153","1",""
"null","425179","HierDy2qzphcqt","sub05","05","2","feedback","test","null","","","na","","153","",""
"1426.0000000000582","426607","HierDy2qzphcqt","sub05","05","2","rl","test","74","img/p_c_dots.png","6","74","pattern,shape,color","154","1",""
"null","427610","HierDy2qzphcqt","sub05","05","2","feedback","test","null","","","na","","154","",""
"1582","429194","HierDy2qzphcqt","sub05","05","2","rl","test","65","img/b_c_diag.png","1","65","pattern,shape,color","155","1",""
"null","430197","HierDy2qzphcqt","sub05","05","2","feedback","test","null","","","na","","155","",""
"1188","431386","HierDy2qzphcqt","sub05","05","2","rl","test","76","img/p_d_dots.png","8","76","pattern,shape,color","156","1",""
"null","432389","HierDy2qzphcqt","sub05","05","2","feedback","test","null","","","na","","156","",""
"1326","433717","HierDy2qzphcqt","sub05","05","2","rl","test","76","img/p_d_dots.png","8","76","pattern,shape,color","157","1",""
"null","434720","HierDy2qzphcqt","sub05","05","2","feedback","test","null","","","na","","157","",""
"1252","435974","HierDy2qzphcqt","sub05","05","2","rl","test","74","img/p_c_dots.png","6","74","pattern,shape,color","158","1",""
"null","436978","HierDy2qzphcqt","sub05","05","2","feedback","test","null","","","na","","158","",""
"711.0000000000582","437690","HierDy2qzphcqt","sub05","05","2","rl","test","72","img/b_c_dots.png","5","72","pattern,shape,color","159","1",""
"null","438693","HierDy2qzphcqt","sub05","05","2","feedback","test","null","","","na","","159","",""
"1118.9999999999418","439815","HierDy2qzphcqt","sub05","05","2","rl","test","76","img/p_d_dots.png","8","76","pattern,shape,color","160","1",""
"null","440818","HierDy2qzphcqt","sub05","05","2","feedback","test","null","","","na","","160","",""
"857","441677","HierDy2qzphcqt","sub05","05","2","rl","test","75","img/b_d_dots.png","7","75","pattern,shape,color","161","1",""
"null","442680","HierDy2qzphcqt","sub05","05","2","feedback","test","null","","","na","","161","",""
"826","443508","HierDy2qzphcqt","sub05","05","2","rl","test","65","img/b_c_diag.png","1","65","pattern,shape,color","162","1",""
"null","444512","HierDy2qzphcqt","sub05","05","2","feedback","test","null","","","na","","162","",""
"1159","445673","HierDy2qzphcqt","sub05","05","2","rl","test","74","img/p_c_dots.png","6","74","pattern,shape,color","163","1",""
"null","446676","HierDy2qzphcqt","sub05","05","2","feedback","test","null","","","na","","163","",""
"1383","448061","HierDy2qzphcqt","sub05","05","2","rl","test","72","img/b_c_dots.png","5","72","pattern,shape,color","164","1",""
"null","449064","HierDy2qzphcqt","sub05","05","2","feedback","test","null","","","na","","164","",""
"999.0000000000582","450066","HierDy2qzphcqt","sub05","05","2","rl","test","70","img/p_d_diag.png","4","70","pattern,shape,color","165","1",""
"null","451069","HierDy2qzphcqt","sub05","05","2","feedback","test","null","","","na","","165","",""
"1211","452282","HierDy2qzphcqt","sub05","05","2","rl","test","83","img/p_c_diag.png","2","83","pattern,shape,color","166","1",""
"null","453285","HierDy2qzphcqt","sub05","05","2","feedback","test","null","","","na","","166","",""
"1153","454439","HierDy2qzphcqt","sub05","05","2","rl","test","75","img/b_d_dots.png","7","75","pattern,shape,color","167","1",""
"null","455443","HierDy2qzphcqt","sub05","05","2","feedback","test","null","","","na","","167","",""
"638.0000000000582","456083","HierDy2qzphcqt","sub05","05","2","rl","test","68","img/b_d_diag.png","3","68","pattern,shape,color","168","1",""
"null","457086","HierDy2qzphcqt","sub05","05","2","feedback","test","null","","","na","","168","",""
"918","458007","HierDy2qzphcqt","sub05","05","2","rl","test","65","img/b_c_diag.png","1","65","pattern,shape,color","169","1",""
"null","459010","HierDy2qzphcqt","sub05","05","2","feedback","test","null","","","na","","169","",""
"826","459838","HierDy2qzphcqt","sub05","05","2","rl","test","70","img/b_d_diag.png","3","68","pattern,shape,color","170","0",""
"null","460842","HierDy2qzphcqt","sub05","05","2","feedback","test","null","","","na","","170","",""
"1372","462216","HierDy2qzphcqt","sub05","05","2","rl","test","76","img/p_d_dots.png","8","76","pattern,shape,color","171","1",""
"null","463219","HierDy2qzphcqt","sub05","05","2","feedback","test","null","","","na","","171","",""
"969","464190","HierDy2qzphcqt","sub05","05","2","rl","test","72","img/b_c_dots.png","5","72","pattern,shape,color","172","1",""
"null","465193","HierDy2qzphcqt","sub05","05","2","feedback","test","null","","","na","","172","",""
"1008.9999999999418","466205","HierDy2qzphcqt","sub05","05","2","rl","test","74","img/p_c_dots.png","6","74","pattern,shape,color","173","1",""
"null","467207","HierDy2qzphcqt","sub05","05","2","feedback","test","null","","","na","","173","",""
"907","468115","HierDy2qzphcqt","sub05","05","2","rl","test","70","img/p_d_diag.png","4","70","pattern,shape,color","174","1",""
"null","469118","HierDy2qzphcqt","sub05","05","2","feedback","test","null","","","na","","174","",""
"1411","470532","HierDy2qzphcqt","sub05","05","2","rl","test","75","img/b_c_dots.png","5","72","pattern,shape,color","175","0",""
"null","471535","HierDy2qzphcqt","sub05","05","2","feedback","test","null","","","na","","175","",""
"1250","472787","HierDy2qzphcqt","sub05","05","2","rl","test","75","img/b_d_dots.png","7","75","pattern,shape,color","176","1",""
"null","473790","HierDy2qzphcqt","sub05","05","2","feedback","test","null","","","na","","176","",""
"2007","475800","HierDy2qzphcqt","sub05","05","2","rl","test","83","img/p_c_diag.png","2","83","pattern,shape,color","177","1",""
"null","476803","HierDy2qzphcqt","sub05","05","2","feedback","test","null","","","na","","177","",""
"581","477386","HierDy2qzphcqt","sub05","05","2","rl","test","83","img/p_c_diag.png","2","83","pattern,shape,color","178","1",""
"null","478388","HierDy2qzphcqt","sub05","05","2","feedback","test","null","","","na","","178","",""
"1006","479396","HierDy2qzphcqt","sub05","05","2","rl","test","76","img/p_d_dots.png","8","76","pattern,shape,color","179","1",""
"null","480399","HierDy2qzphcqt","sub05","05","2","feedback","test","null","","","na","","179","",""
"1502","481903","HierDy2qzphcqt","sub05","05","2","rl","test","75","img/b_d_dots.png","7","75","pattern,shape,color","180","1",""
"null","482907","HierDy2qzphcqt","sub05","05","2","feedback","test","null","","","na","","180","",""
"854.9999999999418","483765","HierDy2qzphcqt","sub05","05","2","rl","test","65","img/b_c_diag.png","1","65","pattern,shape,color","181","1",""
"null","484768","HierDy2qzphcqt","sub05","05","2","feedback","test","null","","","na","","181","",""
"653","485423","HierDy2qzphcqt","sub05","05","2","rl","test","70","img/b_d_diag.png","3","68","pattern,shape,color","182","0",""
"null","486427","HierDy2qzphcqt","sub05","05","2","feedback","test","null","","","na","","182","",""
"1654","488084","HierDy2qzphcqt","sub05","05","2","rl","test","74","img/p_c_dots.png","6","74","pattern,shape,color","183","1",""
"null","489087","HierDy2qzphcqt","sub05","05","2","feedback","test","null","","","na","","183","",""
"983.9999999999418","490074","HierDy2qzphcqt","sub05","05","2","rl","test","65","img/b_c_diag.png","1","65","pattern,shape,color","184","1",""
"null","491077","HierDy2qzphcqt","sub05","05","2","feedback","test","null","","","na","","184","",""
"655","491734","HierDy2qzphcqt","sub05","05","2","rl","test","70","img/p_d_diag.png","4","70","pattern,shape,color","185","1",""
"null","492738","HierDy2qzphcqt","sub05","05","2","feedback","test","null","","","na","","185","",""
"1628.0000000000582","494368","HierDy2qzphcqt","sub05","05","2","rl","test","75","img/b_d_dots.png","7","75","pattern,shape,color","186","1",""
"null","495372","HierDy2qzphcqt","sub05","05","2","feedback","test","null","","","na","","186","",""
"1864.0000000000582","497238","HierDy2qzphcqt","sub05","05","2","rl","test","74","img/p_c_dots.png","6","74","pattern,shape,color","187","1",""
"null","498241","HierDy2qzphcqt","sub05","05","2","feedback","test","null","","","na","","187","",""
"661","498904","HierDy2qzphcqt","sub05","05","2","rl","test","74","img/p_c_dots.png","6","74","pattern,shape,color","188","1",""
"null","499907","HierDy2qzphcqt","sub05","05","2","feedback","test","null","","","na","","188","",""
"1161.9999999999418","501071","HierDy2qzphcqt","sub05","05","2","rl","test","68","img/b_d_diag.png","3","68","pattern,shape,color","189","1",""
"null","502074","HierDy2qzphcqt","sub05","05","2","feedback","test","null","","","na","","189","",""
"2435","504512","HierDy2qzphcqt","sub05","05","2","rl","test","72","img/b_c_dots.png","5","72","pattern,shape,color","190","1",""
"null","505515","HierDy2qzphcqt","sub05","05","2","feedback","test","null","","","na","","190","",""
"1214.9999999999418","506733","HierDy2qzphcqt","sub05","05","2","rl","test","83","img/p_c_diag.png","2","83","pattern,shape,color","191","1",""
"null","507736","HierDy2qzphcqt","sub05","05","2","feedback","test","null","","","na","","191","",""
"865.9999999999418","508604","HierDy2qzphcqt","sub05","05","2","rl","test","70","img/p_d_diag.png","4","70","pattern,shape,color","192","1",""
"null","509608","HierDy2qzphcqt","sub05","05","2","feedback","test","null","","","na","","192","",""
"2063","511674","HierDy2qzphcqt","sub05","05","2","rl","test","76","img/p_d_dots.png","8","76","pattern,shape,color","193","1",""
"null","512677","HierDy2qzphcqt","sub05","05","2","feedback","test","null","","","na","","193","",""
"821.0000000000582","513500","HierDy2qzphcqt","sub05","05","2","rl","test","68","img/b_d_diag.png","3","68","pattern,shape,color","194","1",""
"null","514503","HierDy2qzphcqt","sub05","05","2","feedback","test","null","","","na","","194","",""
"1057","515563","HierDy2qzphcqt","sub05","05","2","rl","test","76","img/p_d_dots.png","8","76","pattern,shape,color","195","1",""
"null","516566","HierDy2qzphcqt","sub05","05","2","feedback","test","null","","","na","","195","",""
"1298","517866","HierDy2qzphcqt","sub05","05","2","rl","test","65","img/b_c_diag.png","1","65","pattern,shape,color","196","1",""
"null","518869","HierDy2qzphcqt","sub05","05","2","feedback","test","null","","","na","","196","",""
"815.0000000000582","519686","HierDy2qzphcqt","sub05","05","2","rl","test","70","img/p_d_diag.png","4","70","pattern,shape,color","197","1",""
"null","520689","HierDy2qzphcqt","sub05","05","2","feedback","test","null","","","na","","197","",""
"1885","522576","HierDy2qzphcqt","sub05","05","2","rl","test","72","img/b_c_dots.png","5","72","pattern,shape,color","198","1",""
"null","523580","HierDy2qzphcqt","sub05","05","2","feedback","test","null","","","na","","198","",""
"1682","525264","HierDy2qzphcqt","sub05","05","2","rl","test","75","img/b_d_dots.png","7","75","pattern,shape,color","199","1",""
"null","526267","HierDy2qzphcqt","sub05","05","2","feedback","test","null","","","na","","199","",""
"1574","527843","HierDy2qzphcqt","sub05","05","2","rl","test","83","img/p_c_diag.png","2","83","pattern,shape,color","200","1",""
"null","528846","HierDy2qzphcqt","sub05","05","2","feedback","test","null","","","na","","200","",""
"802","529650","HierDy2qzphcqt","sub05","05","2","rl","test","70","img/p_d_diag.png","4","70","pattern,shape,color","201","1",""
"null","530653","HierDy2qzphcqt","sub05","05","2","feedback","test","null","","","na","","201","",""
"1125","531780","HierDy2qzphcqt","sub05","05","2","rl","test","65","img/b_c_diag.png","1","65","pattern,shape,color","202","1",""
"null","532783","HierDy2qzphcqt","sub05","05","2","feedback","test","null","","","na","","202","",""
"1355","534141","HierDy2qzphcqt","sub05","05","2","rl","test","74","img/p_c_dots.png","6","74","pattern,shape,color","203","1",""
"null","535144","HierDy2qzphcqt","sub05","05","2","feedback","test","null","","","na","","203","",""
"933","536079","HierDy2qzphcqt","sub05","05","2","rl","test","68","img/b_d_diag.png","3","68","pattern,shape,color","204","1",""
"null","537082","HierDy2qzphcqt","sub05","05","2","feedback","test","null","","","na","","204","",""
"1267","538351","HierDy2qzphcqt","sub05","05","2","rl","test","72","img/b_c_dots.png","5","72","pattern,shape,color","205","1",""
"null","539354","HierDy2qzphcqt","sub05","05","2","feedback","test","null","","","na","","205","",""
"1071","540428","HierDy2qzphcqt","sub05","05","2","rl","test","83","img/p_c_diag.png","2","83","pattern,shape,color","206","1",""
"null","541431","HierDy2qzphcqt","sub05","05","2","feedback","test","null","","","na","","206","",""
"1568","543001","HierDy2qzphcqt","sub05","05","2","rl","test","72","img/b_c_dots.png","5","72","pattern,shape,color","207","1",""
"null","544004","HierDy2qzphcqt","sub05","05","2","feedback","test","null","","","na","","207","",""
"1039","545046","HierDy2qzphcqt","sub05","05","2","rl","test","76","img/p_d_dots.png","8","76","pattern,shape,color","208","1",""
"null","546050","HierDy2qzphcqt","sub05","05","2","feedback","test","null","","","na","","208","",""
"1243","547295","HierDy2qzphcqt","sub05","05","2","rl","test","83","img/p_c_diag.png","2","83","pattern,shape,color","209","1",""
"null","548298","HierDy2qzphcqt","sub05","05","2","feedback","test","null","","","na","","209","",""
"1294","549594","HierDy2qzphcqt","sub05","05","2","rl","test","75","img/b_d_dots.png","7","75","pattern,shape,color","210","1",""
"null","550596","HierDy2qzphcqt","sub05","05","2","feedback","test","null","","","na","","210","",""
"1334","551933","HierDy2qzphcqt","sub05","05","2","rl","test","75","img/b_d_dots.png","7","75","pattern,shape,color","211","1",""
"null","552936","HierDy2qzphcqt","sub05","05","2","feedback","test","null","","","na","","211","",""
"2186","555124","HierDy2qzphcqt","sub05","05","2","rl","test","65","img/b_c_diag.png","1","65","pattern,shape,color","212","1",""
"null","556127","HierDy2qzphcqt","sub05","05","2","feedback","test","null","","","na","","212","",""
"2379","558509","HierDy2qzphcqt","sub05","05","2","rl","test","76","img/p_d_dots.png","8","76","pattern,shape,color","213","1",""
"null","559512","HierDy2qzphcqt","sub05","05","2","feedback","test","null","","","na","","213","",""
"1022","560537","HierDy2qzphcqt","sub05","05","2","rl","test","76","img/p_d_dots.png","8","76","pattern,shape,color","214","1",""
"null","561541","HierDy2qzphcqt","sub05","05","2","feedback","test","null","","","na","","214","",""
"1154","562697","HierDy2qzphcqt","sub05","05","2","rl","test","70","img/p_d_diag.png","4","70","pattern,shape,color","215","1",""
"null","563701","HierDy2qzphcqt","sub05","05","2","feedback","test","null","","","na","","215","",""
"867","564570","HierDy2qzphcqt","sub05","05","2","rl","test","68","img/b_d_diag.png","3","68","pattern,shape,color","216","1",""
"null","565574","HierDy2qzphcqt","sub05","05","2","feedback","test","null","","","na","","216","",""
"1361","566937","HierDy2qzphcqt","sub05","05","2","rl","test","74","img/p_c_dots.png","6","74","pattern,shape,color","217","1",""
"null","567940","HierDy2qzphcqt","sub05","05","2","feedback","test","null","","","na","","217","",""
"937","568880","HierDy2qzphcqt","sub05","05","2","rl","test","68","img/b_d_diag.png","3","68","pattern,shape,color","218","1",""
"null","569883","HierDy2qzphcqt","sub05","05","2","feedback","test","null","","","na","","218","",""
"726","570612","HierDy2qzphcqt","sub05","05","2","rl","test","70","img/p_d_diag.png","4","70","pattern,shape,color","219","1",""
"null","571615","HierDy2qzphcqt","sub05","05","2","feedback","test","null","","","na","","219","",""
"786","572404","HierDy2qzphcqt","sub05","05","2","rl","test","65","img/b_c_diag.png","1","65","pattern,shape,color","220","1",""
"null","573407","HierDy2qzphcqt","sub05","05","2","feedback","test","null","","","na","","220","",""
"1121.9999999998836","574532","HierDy2qzphcqt","sub05","05","2","rl","test","83","img/p_c_diag.png","2","83","pattern,shape,color","221","1",""
"null","575535","HierDy2qzphcqt","sub05","05","2","feedback","test","null","","","na","","221","",""
"1351","576889","HierDy2qzphcqt","sub05","05","2","rl","test","72","img/b_c_dots.png","5","72","pattern,shape,color","222","1",""
"null","577892","HierDy2qzphcqt","sub05","05","2","feedback","test","null","","","na","","222","",""
"860","578755","HierDy2qzphcqt","sub05","05","2","rl","test","76","img/p_d_dots.png","8","76","pattern,shape,color","223","1",""
"null","579757","HierDy2qzphcqt","sub05","05","2","feedback","test","null","","","na","","223","",""
"null","582259","HierDy2qzphcqt","sub05","05","2","rl","test","null","img/p_c_dots.png","6","74","pattern,shape,color","224","0",""
"null","583263","HierDy2qzphcqt","sub05","05","2","feedback","test","null","","","na","","224","",""
"1763","585028","HierDy2qzphcqt","sub05","05","2","rl","test","75","img/b_d_dots.png","7","75","pattern,shape,color","225","1",""
"null","586031","HierDy2qzphcqt","sub05","05","2","feedback","test","null","","","na","","225","",""
"1623","587656","HierDy2qzphcqt","sub05","05","2","rl","test","65","img/b_c_diag.png","1","65","pattern,shape,color","226","1",""
"null","588659","HierDy2qzphcqt","sub05","05","2","feedback","test","null","","","na","","226","",""
"1374.0000000001164","590035","HierDy2qzphcqt","sub05","05","2","rl","test","76","img/p_c_dots.png","6","74","pattern,shape,color","227","0",""
"null","591039","HierDy2qzphcqt","sub05","05","2","feedback","test","null","","","na","","227","",""
"888.0000000001164","591929","HierDy2qzphcqt","sub05","05","2","rl","test","68","img/b_d_diag.png","3","68","pattern,shape,color","228","1",""
"null","592932","HierDy2qzphcqt","sub05","05","2","feedback","test","null","","","na","","228","",""
"1373","594308","HierDy2qzphcqt","sub05","05","2","rl","test","75","img/b_d_dots.png","7","75","pattern,shape,color","229","1",""
"null","595311","HierDy2qzphcqt","sub05","05","2","feedback","test","null","","","na","","229","",""
"1046","596358","HierDy2qzphcqt","sub05","05","2","rl","test","83","img/p_c_diag.png","2","83","pattern,shape,color","230","1",""
"null","597361","HierDy2qzphcqt","sub05","05","2","feedback","test","null","","","na","","230","",""
"1269","598633","HierDy2qzphcqt","sub05","05","2","rl","test","75","img/b_d_dots.png","7","75","pattern,shape,color","231","1",""
"null","599636","HierDy2qzphcqt","sub05","05","2","feedback","test","null","","","na","","231","",""
"759","600398","HierDy2qzphcqt","sub05","05","2","rl","test","70","img/p_d_diag.png","4","70","pattern,shape,color","232","1",""
"null","601401","HierDy2qzphcqt","sub05","05","2","feedback","test","null","","","na","","232","",""
"2321","603725","HierDy2qzphcqt","sub05","05","2","rl","test","72","img/b_c_dots.png","5","72","pattern,shape,color","233","1",""
"null","604728","HierDy2qzphcqt","sub05","05","2","feedback","test","null","","","na","","233","",""
"608","605339","HierDy2qzphcqt","sub05","05","2","rl","test","72","img/b_c_dots.png","5","72","pattern,shape,color","234","1",""
"null","606342","HierDy2qzphcqt","sub05","05","2","feedback","test","null","","","na","","234","",""
"1437","607782","HierDy2qzphcqt","sub05","05","2","rl","test","83","img/p_c_diag.png","2","83","pattern,shape,color","235","1",""
"null","608785","HierDy2qzphcqt","sub05","05","2","feedback","test","null","","","na","","235","",""
"669","609456","HierDy2qzphcqt","sub05","05","2","rl","test","68","img/b_d_diag.png","3","68","pattern,shape,color","236","1",""
"null","610459","HierDy2qzphcqt","sub05","05","2","feedback","test","null","","","na","","236","",""
"687","611148","HierDy2qzphcqt","sub05","05","2","rl","test","70","img/p_d_diag.png","4","70","pattern,shape,color","237","1",""
"null","612151","HierDy2qzphcqt","sub05","05","2","feedback","test","null","","","na","","237","",""
"998","613152","HierDy2qzphcqt","sub05","05","2","rl","test","76","img/p_d_dots.png","8","76","pattern,shape,color","238","1",""
"null","614155","HierDy2qzphcqt","sub05","05","2","feedback","test","null","","","na","","238","",""
"997.0000000001164","615154","HierDy2qzphcqt","sub05","05","2","rl","test","68","img/b_d_diag.png","3","68","pattern,shape,color","239","1",""
"null","616158","HierDy2qzphcqt","sub05","05","2","feedback","test","null","","","na","","239","",""
"1169.9999999998836","617330","HierDy2qzphcqt","sub05","05","2","rl","test","65","img/b_c_diag.png","1","65","pattern,shape,color","240","1",""
"null","618333","HierDy2qzphcqt","sub05","05","2","feedback","test","null","","","na","","240","",""
"1843.0000000001164","620179","HierDy2qzphcqt","sub05","05","2","rl","test","65","img/b_c_diag.png","1","65","pattern,shape,color","241","1",""
"null","621182","HierDy2qzphcqt","sub05","05","2","feedback","test","null","","","na","","241","",""
"1354","622539","HierDy2qzphcqt","sub05","05","2","rl","test","74","img/p_c_dots.png","6","74","pattern,shape,color","242","1",""
"null","623542","HierDy2qzphcqt","sub05","05","2","feedback","test","null","","","na","","242","",""
"1681","625225","HierDy2qzphcqt","sub05","05","2","rl","test","83","img/p_c_diag.png","2","83","pattern,shape,color","243","1",""
"null","626229","HierDy2qzphcqt","sub05","05","2","feedback","test","null","","","na","","243","",""
"1385","627616","HierDy2qzphcqt","sub05","05","2","rl","test","74","img/p_c_dots.png","6","74","pattern,shape,color","244","1",""
"null","628619","HierDy2qzphcqt","sub05","05","2","feedback","test","null","","","na","","244","",""
"703","629324","HierDy2qzphcqt","sub05","05","2","rl","test","76","img/p_d_dots.png","8","76","pattern,shape,color","245","1",""
"null","630328","HierDy2qzphcqt","sub05","05","2","feedback","test","null","","","na","","245","",""
"1019","631350","HierDy2qzphcqt","sub05","05","2","rl","test","75","img/b_d_dots.png","7","75","pattern,shape,color","246","1",""
"null","632352","HierDy2qzphcqt","sub05","05","2","feedback","test","null","","","na","","246","",""
"1279","633633","HierDy2qzphcqt","sub05","05","2","rl","test","72","img/b_c_dots.png","5","72","pattern,shape,color","247","1",""
"null","634636","HierDy2qzphcqt","sub05","05","2","feedback","test","null","","","na","","247","",""
"773","635410","HierDy2qzphcqt","sub05","05","2","rl","test","70","img/p_d_diag.png","4","70","pattern,shape,color","248","1",""
"null","636414","HierDy2qzphcqt","sub05","05","2","feedback","test","null","","","na","","248","",""
"18410","654859","HierDy2qzphcqt","sub05","05","2","","","","","","","","","","{""Q0"":""5""}"
"75147.00000000012","730009","HierDy2qzphcqt","sub05","05","2","","","","","","","","","","{""Q0"":""remembering the pattern from the day prior and also remembering that the shapes switch every two keys, the patterns stay the same all throughout, and every other key the color alternates""}"
"4517.999999999884","734528","HierDy2qzphcqt","sub05","05","2","","","","","","","","","",""
